! WinPLOTR profile fitting results:
!   data file: G105--5-40-0.01-1000ms.xy
!    wave (A):      1.54060     1.54060     0.50000
!
!   2theta(deg.) sig_2th        d(A)   Intensity     sig_int         FWHM    FWHM_sig         ETA     ETA_sig
!------------------------------------------------------------------------------------------------------------------
   18.656733    0.006296     4.75223     -153.70        3.39    -0.840418    0.016165    0.216420    0.027983
   20.477711    0.022860     4.33356      -97.87        5.44    -1.562323    0.079102    0.216420    0.027983
   22.506475    0.012093     3.94731     -122.17        4.01    -1.186840    0.032857    0.216420    0.027983
   28.566307    0.000000     3.12224      -41.40        2.15    -1.177746    0.050457    0.216420    0.027983
   30.090855    0.000000     2.96743       30.47        3.56     3.639943    0.420618    0.216420    0.027983
   33.380329    0.000000     2.68214        6.76        1.51     1.193944    0.251837    0.216420    0.027983
   17.298454    0.000000     5.12219       92.35        6.02     2.939222    0.147133    0.216420    0.027983
   20.039682    0.000000     4.42729      734.72       13.14    10.936162    0.216994    0.216420    0.027983
   18.577694    0.000000     4.77227      154.02        3.19     0.251681    0.005337    1.962562    0.008251
   20.587929    0.000000     4.31061      412.49       24.36     1.939348    0.044868    1.962562    0.008251
   22.363199    0.000000     3.97227      130.59        3.95     0.426626    0.011414    1.962562    0.008251
   28.367796    0.000000     3.14363       49.21        2.05     0.392638    0.017152    1.962562    0.008251
   29.934210    0.000000     2.98260     -120.42       14.05    -3.128689    0.191138    1.962562    0.008251
   33.354218    0.000000     2.68418   -22682.44  6161899.50 24757.953100************    1.962562    0.008251
   17.507311    0.000000     5.06155      237.83        8.77     1.820959    0.000000    1.962562    0.008251
   20.091896    0.000000     4.41590      439.83       27.49     4.252396    0.143965    1.962562    0.008251
   18.577694    0.000000     4.77227      181.61        6.02     0.768961    0.021607    0.829855    0.025106
   20.587929    0.000000     4.31061       38.73        5.61     0.751285    0.093600    0.829855    0.025106
   22.493736    0.000000     3.94951      106.43        5.19     0.867443    0.034771    0.829855    0.025106
   28.576651    0.000000     3.12113       55.21        2.70     1.066115    0.058175    0.829855    0.025106
   30.090855    0.000000     2.96743      -24.95        4.63    -2.284759    0.411660    0.829855    0.025106
   33.223682    0.000000     2.69443       19.84        1.89     1.640768    0.000000    0.829855    0.025106
   17.350668    0.000000     5.10690       23.69        2.65     1.140768    0.000000    0.829855    0.025106
   20.144110    0.000000     4.40457     1192.79       32.04     9.474597    0.216461    0.829855    0.025106
   18.649252    0.000000     4.75412      153.01        0.00     0.885232    0.000000    0.065807    0.010423
   20.467037    0.000000     4.33580       79.15        0.00     1.494212    0.000000    0.065807    0.010423
   22.504148    0.000000     3.94771      105.31        0.00     1.142395    0.000000    0.065807    0.010423
   28.532616    0.000000     3.12585       43.21        0.00     1.279683    0.000000    0.065807    0.010423
   30.038641    0.000000     2.97247       35.23        0.00     3.127716    0.000000    0.065807    0.010423
   33.432541    0.000000     2.67807       16.87        0.00     2.627716    0.000000    0.065807    0.010423
   17.207207    0.054190     5.14915       47.98        0.00     2.146752    0.000000    0.065807    0.010423
   19.946733    0.027356     4.44771      754.00        5.57    10.237112    0.000000    0.065807    0.010423
