 => TITLE: 
 => Data file name: C:\Users\stefano\Nextcloud2\uni\master-thesis\XRD\data\G311\G311--5-40-0.01-1000ms.xy
 => Instrm        :    1
 => Lambda(1&2)   :   1.54060  1.54060
 => Numb.of.points:      2951
 => Numb.of.peaks :         7
    2Theta     Yobs     Ycalc  Yobs-Ycal    Backg    Bragg     Posr  Intensity   FWHM    Eta
    6.0086     23.18     24.46    -20.41     20.00   18.5232      1.38     111.46  0.8405  0.5596
    6.0187     24.13     24.46    -19.46     20.00   20.4445      1.38       7.49  0.5192  0.5596
    6.0289     23.91     24.47    -19.69     20.00   22.3804      1.38      66.19  1.0649  0.5596
    6.0391     22.40     24.48    -21.21     20.00   28.3305      1.38      63.83  2.2321  0.5596
    6.0492     23.65     24.48    -19.96     20.00   29.9081      1.38      30.06  3.2636  0.5596
    6.0594     23.55     24.49    -20.07     20.00   33.1976      1.38      23.11  3.0776  0.5596
    6.0696     24.14     24.50    -19.49     20.00   19.5008      1.38    1156.42  8.6504  0.5371
    6.0797     23.90     24.50    -19.73     20.00
    6.0899     23.93     24.51    -19.71     20.00
    6.1001     23.45     24.52    -20.20     20.00
    6.1102     23.66     24.52    -19.99     20.00
    6.1204     23.63     24.53    -20.03     20.00
    6.1306     22.86     24.54    -20.81     20.00
    6.1407     23.19     24.54    -20.48     20.00
    6.1509     23.66     24.55    -20.02     20.00
    6.1611     22.79     24.56    -20.90     20.00
    6.1712     23.52     24.57    -20.18     20.00
    6.1814     22.89     24.57    -20.81     20.00
    6.1915     22.82     24.58    -20.89     20.00
    6.2017     23.18     24.59    -20.54     20.00
    6.2119     23.37     24.59    -20.35     20.00
    6.2220     22.98     24.60    -20.75     20.00
    6.2322     23.34     24.61    -20.40     20.00
    6.2424     22.60     24.61    -21.14     20.00
    6.2525     23.48     24.62    -20.27     20.00
    6.2627     23.17     24.63    -20.59     20.00
    6.2729     22.91     24.64    -20.86     20.00
    6.2830     23.47     24.64    -20.30     20.00
    6.2932     23.16     24.65    -20.62     20.00
    6.3034     22.99     24.66    -20.80     20.00
    6.3135     22.64     24.66    -21.15     20.00
    6.3237     22.76     24.67    -21.04     20.00
    6.3338     23.60     24.68    -20.21     20.00
    6.3440     23.68     24.69    -20.14     20.00
    6.3542     23.46     24.69    -20.36     20.00
    6.3643     23.51     24.70    -20.32     20.00
    6.3745     23.44     24.71    -20.40     20.00
    6.3847     23.07     24.72    -20.78     20.00
    6.3948     21.90     24.72    -21.95     20.00
    6.4050     23.75     24.73    -20.11     20.00
    6.4152     22.99     24.74    -20.88     20.00
    6.4253     23.11     24.75    -20.77     20.00
    6.4355     23.10     24.75    -20.78     20.00
    6.4457     22.71     24.76    -21.18     20.00
    6.4558     21.96     24.77    -21.94     20.00
    6.4660     23.02     24.78    -20.89     20.00
    6.4762     22.91     24.78    -21.00     20.00
    6.4863     22.85     24.79    -21.07     20.00
    6.4965     23.51     24.80    -20.42     20.00
    6.5066     22.33     24.81    -21.61     20.00
    6.5168     22.80     24.81    -21.14     20.00
    6.5270     23.49     24.82    -20.46     20.00
    6.5371     23.25     24.83    -20.71     20.00
    6.5473     23.01     24.84    -20.96     20.00
    6.5575     22.77     24.85    -21.21     20.00
    6.5676     23.21     24.85    -20.77     20.00
    6.5778     23.14     24.86    -20.85     20.00
    6.5880     23.27     24.87    -20.73     20.00
    6.5981     23.45     24.88    -20.56     20.00
    6.6083     23.24     24.88    -20.77     20.00
    6.6185     22.61     24.89    -21.41     20.00
    6.6286     22.59     24.90    -21.44     20.00
    6.6388     23.27     24.91    -20.77     20.00
    6.6489     23.49     24.92    -20.56     20.00
    6.6591     22.15     24.92    -21.90     20.00
    6.6693     22.82     24.93    -21.24     20.00
    6.6794     22.98     24.94    -21.09     20.00
    6.6896     23.16     24.95    -20.92     20.00
    6.6998     23.42     24.96    -20.67     20.00
    6.7099     23.56     24.97    -20.54     20.00
    6.7201     23.34     24.97    -20.76     20.00
    6.7303     23.41     24.98    -20.70     20.00
    6.7404     23.99     24.99    -20.13     20.00
    6.7506     23.49     25.00    -20.64     20.00
    6.7608     22.96     25.01    -21.18     20.00
    6.7709     23.54     25.02    -20.61     20.00
    6.7811     23.64     25.02    -20.51     20.00
    6.7913     23.78     25.03    -20.38     20.00
    6.8014     23.24     25.04    -20.93     20.00
    6.8116     23.94     25.05    -20.24     20.00
    6.8217     23.58     25.06    -20.61     20.00
    6.8319     23.24     25.07    -20.96     20.00
    6.8421     23.89     25.07    -20.31     20.00
    6.8522     23.48     25.08    -20.73     20.00
    6.8624     23.32     25.09    -20.90     20.00
    6.8726     23.09     25.10    -21.14     20.00
    6.8827     23.68     25.11    -20.56     20.00
    6.8929     22.52     25.12    -21.73     20.00
    6.9031     23.31     25.13    -20.95     20.00
    6.9132     23.98     25.13    -20.28     20.00
    6.9234     23.76     25.14    -20.51     20.00
    6.9336     23.12     25.15    -21.16     20.00
    6.9437     23.73     25.16    -20.56     20.00
    6.9539     23.96     25.17    -20.34     20.00
    6.9640     23.18     25.18    -21.13     20.00
    6.9742     23.48     25.19    -20.84     20.00
    6.9844     23.58     25.20    -20.75     20.00
    6.9945     23.30     25.21    -21.04     20.00
    7.0047     23.45     25.21    -20.89     20.00
    7.0149     24.01     25.22    -20.34     20.00
    7.0250     23.73     25.23    -20.63     20.00
    7.0352     23.55     25.24    -20.82     20.00
    7.0454     23.49     25.25    -20.89     20.00
    7.0555     23.71     25.26    -20.68     20.00
    7.0657     24.01     25.27    -20.39     20.00
    7.0759     23.91     25.28    -20.50     20.00
    7.0860     23.13     25.29    -21.29     20.00
    7.0962     24.09     25.30    -20.34     20.00
    7.1064     24.22     25.31    -20.22     20.00
    7.1165     22.99     25.31    -21.45     20.00
    7.1267     23.65     25.32    -20.80     20.00
    7.1368     24.29     25.33    -20.17     20.00
    7.1470     23.58     25.34    -20.89     20.00
    7.1572     23.16     25.35    -21.32     20.00
    7.1673     24.00     25.36    -20.49     20.00
    7.1775     23.99     25.37    -20.51     20.00
    7.1877     24.13     25.38    -20.38     20.00
    7.1978     24.12     25.39    -20.40     20.00
    7.2080     23.49     25.40    -21.04     20.00
    7.2182     24.49     25.41    -20.05     20.00
    7.2283     24.13     25.42    -20.42     20.00
    7.2385     24.64     25.43    -19.92     20.00
    7.2487     24.27     25.44    -20.30     20.00
    7.2588     24.09     25.45    -20.49     20.00
    7.2690     23.40     25.46    -21.19     20.00
    7.2791     24.35     25.47    -20.25     20.00
    7.2893     23.68     25.48    -20.93     20.00
    7.2995     23.46     25.49    -21.16     20.00
    7.3096     25.50     25.50    -19.13     20.00
    7.3198     24.24     25.51    -20.40     20.00
    7.3300     24.07     25.52    -20.58     20.00
    7.3401     24.30     25.53    -20.36     20.00
    7.3503     24.85     25.54    -19.82     20.00
    7.3605     24.44     25.55    -20.24     20.00
    7.3706     23.99     25.56    -20.70     20.00
    7.3808     23.57     25.57    -21.13     20.00
    7.3910     23.37     25.58    -21.34     20.00
    7.4011     24.43     25.59    -20.29     20.00
    7.4113     24.46     25.60    -20.27     20.00
    7.4215     24.26     25.61    -20.48     20.00
    7.4316     25.22     25.62    -19.53     20.00
    7.4418     23.76     25.63    -21.00     20.00
    7.4519     23.95     25.64    -20.82     20.00
    7.4621     24.31     25.65    -20.47     20.00
    7.4723     24.48     25.66    -20.31     20.00
    7.4824     23.62     25.67    -21.18     20.00
    7.4926     23.85     25.68    -20.96     20.00
    7.5028     25.01     25.69    -19.81     20.00
    7.5129     24.40     25.70    -20.43     20.00
    7.5231     25.06     25.71    -19.78     20.00
    7.5333     24.84     25.73    -20.02     20.00
    7.5434     25.43     25.74    -19.44     20.00
    7.5536     25.54     25.75    -19.34     20.00
    7.5638     24.43     25.76    -20.46     20.00
    7.5739     24.89     25.77    -20.01     20.00
    7.5841     24.49     25.78    -20.42     20.00
    7.5942     25.36     25.79    -19.56     20.00
    7.6044     25.01     25.80    -19.92     20.00
    7.6146     25.46     25.81    -19.48     20.00
    7.6247     24.99     25.82    -19.96     20.00
    7.6349     24.45     25.83    -20.51     20.00
    7.6451     24.41     25.85    -20.57     20.00
    7.6552     25.22     25.86    -19.77     20.00
    7.6654     24.40     25.87    -20.60     20.00
    7.6756     24.81     25.88    -20.20     20.00
    7.6857     24.86     25.89    -20.16     20.00
    7.6959     24.35     25.90    -20.68     20.00
    7.7061     24.51     25.91    -20.53     20.00
    7.7162     24.73     25.93    -20.33     20.00
    7.7264     25.05     25.94    -20.02     20.00
    7.7365     25.35     25.95    -19.73     20.00
    7.7467     24.99     25.96    -20.10     20.00
    7.7569     24.59     25.97    -20.51     20.00
    7.7670     24.60     25.98    -20.51     20.00
    7.7772     24.93     25.99    -20.19     20.00
    7.7874     25.22     26.01    -19.92     20.00
    7.7975     24.68     26.02    -20.47     20.00
    7.8077     25.49     26.03    -19.67     20.00
    7.8179     25.37     26.04    -19.80     20.00
    7.8280     24.99     26.05    -20.19     20.00
    7.8382     25.72     26.07    -19.48     20.00
    7.8484     24.91     26.08    -20.30     20.00
    7.8585     25.03     26.09    -20.19     20.00
    7.8687     25.91     26.10    -19.32     20.00
    7.8789     24.64     26.11    -20.60     20.00
    7.8890     25.66     26.13    -19.60     20.00
    7.8992     25.60     26.14    -19.67     20.00
    7.9093     25.67     26.15    -19.61     20.00
    7.9195     25.34     26.16    -19.95     20.00
    7.9297     26.20     26.18    -19.11     20.00
    7.9398     24.93     26.19    -20.39     20.00
    7.9500     26.45     26.20    -18.88     20.00
    7.9602     25.79     26.21    -19.55     20.00
    7.9703     25.52     26.23    -19.84     20.00
    7.9805     25.37     26.24    -20.00     20.00
    7.9907     26.27     26.25    -19.11     20.00
    8.0008     25.78     26.26    -19.61     20.00
    8.0110     25.68     26.28    -19.73     20.00
    8.0212     26.69     26.29    -18.73     20.00
    8.0313     25.65     26.30    -19.78     20.00
    8.0415     25.59     26.32    -19.86     20.00
    8.0516     25.67     26.33    -19.79     20.00
    8.0618     26.09     26.34    -19.38     20.00
    8.0720     26.02     26.35    -19.46     20.00
    8.0821     25.51     26.37    -19.99     20.00
    8.0923     25.49     26.38    -20.02     20.00
    8.1025     25.51     26.39    -20.01     20.00
    8.1126     26.29     26.41    -19.25     20.00
    8.1228     25.99     26.42    -19.56     20.00
    8.1330     25.68     26.43    -19.88     20.00
    8.1431     26.21     26.45    -19.37     20.00
    8.1533     25.90     26.46    -19.69     20.00
    8.1635     25.84     26.48    -19.77     20.00
    8.1736     26.96     26.49    -18.66     20.00
    8.1838     25.25     26.50    -20.38     20.00
    8.1940     26.02     26.52    -19.63     20.00
    8.2041     25.90     26.53    -19.76     20.00
    8.2143     26.74     26.54    -18.93     20.00
    8.2244     26.51     26.56    -19.18     20.00
    8.2346     26.80     26.57    -18.90     20.00
    8.2448     26.71     26.59    -19.01     20.00
    8.2549     26.29     26.60    -19.44     20.00
    8.2651     27.02     26.61    -18.72     20.00
    8.2753     26.34     26.63    -19.42     20.00
    8.2854     26.23     26.64    -19.54     20.00
    8.2956     26.91     26.66    -18.88     20.00
    8.3058     26.26     26.67    -19.54     20.00
    8.3159     26.34     26.69    -19.48     20.00
    8.3261     27.73     26.70    -18.10     20.00
    8.3363     27.16     26.71    -18.68     20.00
    8.3464     26.76     26.73    -19.10     20.00
    8.3566     26.87     26.74    -19.00     20.00
    8.3667     26.77     26.76    -19.12     20.00
    8.3769     26.29     26.77    -19.61     20.00
    8.3871     26.48     26.79    -19.44     20.00
    8.3972     26.73     26.80    -19.20     20.00
    8.4074     27.12     26.82    -18.83     20.00
    8.4176     27.52     26.83    -18.44     20.00
    8.4277     26.94     26.85    -19.04     20.00
    8.4379     27.27     26.86    -18.72     20.00
    8.4481     27.27     26.88    -18.74     20.00
    8.4582     27.23     26.89    -18.79     20.00
    8.4684     27.41     26.91    -18.63     20.00
    8.4786     27.27     26.92    -18.78     20.00
    8.4887     26.27     26.94    -19.80     20.00
    8.4989     26.95     26.95    -19.13     20.00
    8.5091     26.72     26.97    -19.38     20.00
    8.5192     26.78     26.99    -19.34     20.00
    8.5294     27.52     27.00    -18.61     20.00
    8.5395     27.05     27.02    -19.10     20.00
    8.5497     27.54     27.03    -18.62     20.00
    8.5599     27.46     27.05    -18.72     20.00
    8.5700     27.01     27.06    -19.18     20.00
    8.5802     27.19     27.08    -19.02     20.00
    8.5904     27.29     27.10    -18.94     20.00
    8.6005     28.48     27.11    -17.76     20.00
    8.6107     27.56     27.13    -18.70     20.00
    8.6209     27.77     27.15    -18.51     20.00
    8.6310     27.84     27.16    -18.45     20.00
    8.6412     27.16     27.18    -19.15     20.00
    8.6514     27.45     27.19    -18.87     20.00
    8.6615     28.44     27.21    -17.90     20.00
    8.6717     27.61     27.23    -18.75     20.00
    8.6818     27.15     27.24    -19.22     20.00
    8.6920     27.63     27.26    -18.76     20.00
    8.7022     27.43     27.28    -18.98     20.00
    8.7123     27.36     27.29    -19.06     20.00
    8.7225     27.88     27.31    -18.56     20.00
    8.7327     27.68     27.33    -18.78     20.00
    8.7428     26.88     27.35    -19.60     20.00
    8.7530     27.97     27.36    -18.52     20.00
    8.7632     28.06     27.38    -18.45     20.00
    8.7733     27.71     27.40    -18.82     20.00
    8.7835     27.94     27.41    -18.60     20.00
    8.7937     28.27     27.43    -18.29     20.00
    8.8038     28.44     27.45    -18.14     20.00
    8.8140     28.32     27.47    -18.28     20.00
    8.8242     28.32     27.48    -18.29     20.00
    8.8343     28.15     27.50    -18.48     20.00
    8.8445     28.48     27.52    -18.17     20.00
    8.8546     27.70     27.54    -18.97     20.00
    8.8648     28.01     27.56    -18.68     20.00
    8.8750     28.18     27.57    -18.52     20.00
    8.8851     27.87     27.59    -18.85     20.00
    8.8953     28.05     27.61    -18.69     20.00
    8.9055     27.59     27.63    -19.17     20.00
    8.9156     27.41     27.65    -19.37     20.00
    8.9258     28.57     27.67    -18.23     20.00
    8.9360     27.83     27.68    -18.98     20.00
    8.9461     27.35     27.70    -19.48     20.00
    8.9563     28.66     27.72    -18.19     20.00
    8.9665     28.74     27.74    -18.13     20.00
    8.9766     27.64     27.76    -19.25     20.00
    8.9868     28.55     27.78    -18.36     20.00
    8.9969     28.88     27.80    -18.05     20.00
    9.0071     28.09     27.82    -18.86     20.00
    9.0173     27.88     27.83    -19.08     20.00
    9.0274     28.45     27.85    -18.53     20.00
    9.0376     29.10     27.87    -17.90     20.00
    9.0478     28.93     27.89    -18.09     20.00
    9.0579     28.02     27.91    -19.02     20.00
    9.0681     28.98     27.93    -18.08     20.00
    9.0783     29.07     27.95    -18.01     20.00
    9.0884     28.55     27.97    -18.55     20.00
    9.0986     28.31     27.99    -18.81     20.00
    9.1088     29.34     28.01    -17.80     20.00
    9.1189     29.21     28.03    -17.95     20.00
    9.1291     28.52     28.05    -18.66     20.00
    9.1393     28.50     28.07    -18.70     20.00
    9.1494     29.23     28.09    -17.99     20.00
    9.1596     28.99     28.11    -18.25     20.00
    9.1697     29.20     28.13    -18.06     20.00
    9.1799     29.16     28.15    -18.12     20.00
    9.1901     28.88     28.17    -18.42     20.00
    9.2002     29.58     28.19    -17.74     20.00
    9.2104     29.33     28.21    -18.01     20.00
    9.2206     29.01     28.23    -18.35     20.00
    9.2307     29.05     28.26    -18.34     20.00
    9.2409     29.83     28.28    -17.58     20.00
    9.2511     29.32     28.30    -18.11     20.00
    9.2612     29.53     28.32    -17.92     20.00
    9.2714     29.91     28.34    -17.56     20.00
    9.2816     29.29     28.36    -18.20     20.00
    9.2917     29.83     28.38    -17.68     20.00
    9.3019     30.13     28.40    -17.40     20.00
    9.3120     29.43     28.43    -18.13     20.00
    9.3222     29.62     28.45    -17.96     20.00
    9.3324     30.05     28.47    -17.55     20.00
    9.3425     30.16     28.49    -17.46     20.00
    9.3527     30.01     28.51    -17.63     20.00
    9.3629     30.07     28.54    -17.60     20.00
    9.3730     29.93     28.56    -17.76     20.00
    9.3832     29.75     28.58    -17.96     20.00
    9.3934     30.20     28.60    -17.53     20.00
    9.4035     30.43     28.62    -17.32     20.00
    9.4137     29.61     28.65    -18.17     20.00
    9.4239     30.41     28.67    -17.39     20.00
    9.4340     30.18     28.69    -17.64     20.00
    9.4442     29.45     28.72    -18.40     20.00
    9.4544     30.49     28.74    -17.38     20.00
    9.4645     30.13     28.76    -17.76     20.00
    9.4747     30.24     28.78    -17.67     20.00
    9.4848     30.29     28.81    -17.65     20.00
    9.4950     29.84     28.83    -18.12     20.00
    9.5052     30.23     28.85    -17.75     20.00
    9.5153     30.40     28.88    -17.61     20.00
    9.5255     29.79     28.90    -18.24     20.00
    9.5357     29.84     28.93    -18.22     20.00
    9.5458     30.92     28.95    -17.16     20.00
    9.5560     29.39     28.97    -18.71     20.00
    9.5662     30.03     29.00    -18.10     20.00
    9.5763     30.18     29.02    -17.97     20.00
    9.5865     29.72     29.05    -18.46     20.00
    9.5967     30.15     29.07    -18.05     20.00
    9.6068     30.40     29.09    -17.82     20.00
    9.6170     30.15     29.12    -18.10     20.00
    9.6271     30.41     29.14    -17.86     20.00
    9.6373     30.59     29.17    -17.71     20.00
    9.6475     30.28     29.19    -18.04     20.00
    9.6576     29.77     29.22    -18.58     20.00
    9.6678     30.21     29.24    -18.16     20.00
    9.6780     29.68     29.27    -18.72     20.00
    9.6881     31.04     29.29    -17.38     20.00
    9.6983     30.18     29.32    -18.27     20.00
    9.7085     30.01     29.35    -18.47     20.00
    9.7186     31.18     29.37    -17.32     20.00
    9.7288     30.34     29.40    -18.19     20.00
    9.7390     30.60     29.42    -17.95     20.00
    9.7491     31.05     29.45    -17.53     20.00
    9.7593     30.62     29.48    -17.99     20.00
    9.7694     31.15     29.50    -17.48     20.00
    9.7796     30.35     29.53    -18.31     20.00
    9.7898     29.71     29.55    -18.97     20.00
    9.7999     31.13     29.58    -17.58     20.00
    9.8101     31.25     29.61    -17.49     20.00
    9.8203     30.22     29.63    -18.54     20.00
    9.8304     30.72     29.66    -18.07     20.00
    9.8406     31.00     29.69    -17.82     20.00
    9.8508     31.60     29.72    -17.25     20.00
    9.8609     30.77     29.74    -18.10     20.00
    9.8711     31.81     29.77    -17.09     20.00
    9.8813     30.20     29.80    -18.73     20.00
    9.8914     31.12     29.83    -17.84     20.00
    9.9016     30.50     29.85    -18.48     20.00
    9.9118     31.77     29.88    -17.24     20.00
    9.9219     31.30     29.91    -17.74     20.00
    9.9321     31.41     29.94    -17.66     20.00
    9.9422     31.85     29.97    -17.25     20.00
    9.9524     31.32     29.99    -17.80     20.00
    9.9626     30.77     30.02    -18.38     20.00
    9.9727     31.80     30.05    -17.38     20.00
    9.9829     31.60     30.08    -17.61     20.00
    9.9931     32.86     30.11    -16.38     20.00
   10.0032     31.57     30.14    -17.70     20.00
   10.0134     32.28     30.17    -17.02     20.00
   10.0236     31.33     30.20    -18.00     20.00
   10.0337     31.51     30.23    -17.85     20.00
   10.0439     30.95     30.25    -18.43     20.00
   10.0541     31.79     30.28    -17.62     20.00
   10.0642     32.43     30.31    -17.01     20.00
   10.0744     31.79     30.34    -17.68     20.00
   10.0845     31.48     30.37    -18.02     20.00
   10.0947     32.73     30.40    -16.80     20.00
   10.1049     31.63     30.43    -17.93     20.00
   10.1150     32.20     30.46    -17.39     20.00
   10.1252     31.86     30.50    -17.77     20.00
   10.1354     32.76     30.53    -16.90     20.00
   10.1455     31.68     30.56    -18.01     20.00
   10.1557     31.24     30.59    -18.48     20.00
   10.1659     32.55     30.62    -17.20     20.00
   10.1760     31.93     30.65    -17.85     20.00
   10.1862     32.30     30.68    -17.51     20.00
   10.1964     31.62     30.71    -18.22     20.00
   10.2065     31.18     30.74    -18.69     20.00
   10.2167     32.05     30.78    -17.86     20.00
   10.2269     32.01     30.81    -17.93     20.00
   10.2370     32.12     30.84    -17.85     20.00
   10.2472     31.62     30.87    -18.38     20.00
   10.2573     31.48     30.90    -18.55     20.00
   10.2675     32.63     30.94    -17.44     20.00
   10.2777     32.47     30.97    -17.63     20.00
   10.2878     32.43     31.00    -17.70     20.00
   10.2980     32.63     31.03    -17.53     20.00
   10.3082     32.71     31.07    -17.49     20.00
   10.3183     31.98     31.10    -18.25     20.00
   10.3285     31.91     31.13    -18.35     20.00
   10.3387     32.61     31.17    -17.69     20.00
   10.3488     31.83     31.20    -18.50     20.00
   10.3590     33.08     31.23    -17.28     20.00
   10.3692     32.24     31.27    -18.16     20.00
   10.3793     32.90     31.30    -17.53     20.00
   10.3895     33.84     31.34    -16.63     20.00
   10.3996     32.37     31.37    -18.13     20.00
   10.4098     32.76     31.40    -17.77     20.00
   10.4200     32.60     31.44    -17.97     20.00
   10.4301     33.22     31.47    -17.38     20.00
   10.4403     32.91     31.51    -17.73     20.00
   10.4505     32.70     31.54    -17.97     20.00
   10.4606     33.71     31.58    -17.00     20.00
   10.4708     32.88     31.61    -17.86     20.00
   10.4810     33.74     31.65    -17.04     20.00
   10.4911     33.17     31.69    -17.65     20.00
   10.5013     32.91     31.72    -17.94     20.00
   10.5115     33.63     31.76    -17.26     20.00
   10.5216     33.33     31.79    -17.59     20.00
   10.5318     33.12     31.83    -17.84     20.00
   10.5420     33.33     31.87    -17.67     20.00
   10.5521     32.80     31.90    -18.23     20.00
   10.5623     33.41     31.94    -17.66     20.00
   10.5724     33.12     31.98    -17.99     20.00
   10.5826     33.48     32.01    -17.66     20.00
   10.5928     33.02     32.05    -18.16     20.00
   10.6029     33.15     32.09    -18.07     20.00
   10.6131     32.40     32.12    -18.85     20.00
   10.6233     32.98     32.16    -18.31     20.00
   10.6334     32.82     32.20    -18.51     20.00
   10.6436     34.40     32.24    -16.97     20.00
   10.6538     33.14     32.28    -18.27     20.00
   10.6639     33.71     32.31    -17.73     20.00
   10.6741     33.27     32.35    -18.21     20.00
   10.6843     33.38     32.39    -18.14     20.00
   10.6944     33.43     32.43    -18.13     20.00
   10.7046     33.98     32.47    -17.62     20.00
   10.7147     35.42     32.51    -16.22     20.00
   10.7249     33.98     32.55    -17.70     20.00
   10.7351     33.95     32.59    -17.77     20.00
   10.7452     33.53     32.63    -18.23     20.00
   10.7554     34.29     32.67    -17.51     20.00
   10.7656     33.32     32.71    -18.52     20.00
   10.7757     33.70     32.75    -18.18     20.00
   10.7859     34.37     32.79    -17.55     20.00
   10.7961     34.39     32.83    -17.57     20.00
   10.8062     33.92     32.87    -18.08     20.00
   10.8164     33.61     32.91    -18.43     20.00
   10.8266     34.06     32.95    -18.02     20.00
   10.8367     33.93     32.99    -18.19     20.00
   10.8469     34.21     33.03    -17.95     20.00
   10.8571     34.43     33.07    -17.77     20.00
   10.8672     33.91     33.11    -18.33     20.00
   10.8774     33.63     33.16    -18.66     20.00
   10.8875     33.86     33.20    -18.47     20.00
   10.8977     34.20     33.24    -18.17     20.00
   10.9079     34.62     33.28    -17.79     20.00
   10.9180     33.45     33.33    -19.01     20.00
   10.9282     34.96     33.37    -17.54     20.00
   10.9384     34.74     33.41    -17.80     20.00
   10.9485     34.33     33.45    -18.25     20.00
   10.9587     35.05     33.50    -17.58     20.00
   10.9689     34.52     33.54    -18.15     20.00
   10.9790     34.60     33.58    -18.11     20.00
   10.9892     35.07     33.63    -17.69     20.00
   10.9994     35.05     33.67    -17.75     20.00
   11.0095     34.76     33.72    -18.09     20.00
   11.0197     35.09     33.76    -17.80     20.00
   11.0298     34.84     33.80    -18.09     20.00
   11.0400     35.34     33.85    -17.64     20.00
   11.0502     35.27     33.89    -17.75     20.00
   11.0603     34.95     33.94    -18.12     20.00
   11.0705     34.10     33.98    -19.01     20.00
   11.0807     35.19     34.03    -17.97     20.00
   11.0908     34.90     34.07    -18.30     20.00
   11.1010     35.24     34.12    -18.01     20.00
   11.1112     34.69     34.17    -18.61     20.00
   11.1213     34.88     34.21    -18.46     20.00
   11.1315     34.43     34.26    -18.96     20.00
   11.1417     35.35     34.31    -18.09     20.00
   11.1518     35.93     34.35    -17.55     20.00
   11.1620     35.22     34.40    -18.31     20.00
   11.1722     35.55     34.45    -18.03     20.00
   11.1823     35.70     34.49    -17.92     20.00
   11.1925     34.81     34.54    -18.86     20.00
   11.2026     35.16     34.59    -18.56     20.00
   11.2128     36.08     34.64    -17.69     20.00
   11.2230     35.30     34.68    -18.51     20.00
   11.2331     34.96     34.73    -18.90     20.00
   11.2433     35.41     34.78    -18.50     20.00
   11.2535     35.89     34.83    -18.07     20.00
   11.2636     36.16     34.88    -17.85     20.00
   11.2738     36.05     34.93    -18.01     20.00
   11.2840     36.34     34.98    -17.77     20.00
   11.2941     36.60     35.03    -17.56     20.00
   11.3043     36.41     35.08    -17.80     20.00
   11.3145     36.26     35.13    -18.00     20.00
   11.3246     35.77     35.18    -18.54     20.00
   11.3348     36.70     35.23    -17.66     20.00
   11.3449     35.15     35.28    -19.26     20.00
   11.3551     37.15     35.33    -17.31     20.00
   11.3653     36.20     35.38    -18.31     20.00
   11.3754     36.76     35.43    -17.80     20.00
   11.3856     36.66     35.48    -17.95     20.00
   11.3958     36.49     35.53    -18.17     20.00
   11.4059     36.69     35.58    -18.02     20.00
   11.4161     35.93     35.64    -18.84     20.00
   11.4263     35.98     35.69    -18.84     20.00
   11.4364     36.54     35.74    -18.33     20.00
   11.4466     36.63     35.79    -18.29     20.00
   11.4568     37.46     35.85    -17.52     20.00
   11.4669     36.34     35.90    -18.69     20.00
   11.4771     36.59     35.95    -18.49     20.00
   11.4873     36.78     36.00    -18.35     20.00
   11.4974     36.35     36.06    -18.84     20.00
   11.5076     36.72     36.11    -18.52     20.00
   11.5177     35.79     36.17    -19.51     20.00
   11.5279     36.46     36.22    -18.89     20.00
   11.5381     36.71     36.27    -18.69     20.00
   11.5482     37.38     36.33    -18.08     20.00
   11.5584     37.05     36.38    -18.46     20.00
   11.5686     38.05     36.44    -17.52     20.00
   11.5787     37.59     36.49    -18.03     20.00
   11.5889     37.41     36.55    -18.27     20.00
   11.5991     37.60     36.61    -18.14     20.00
   11.6092     37.71     36.66    -18.08     20.00
   11.6194     37.79     36.72    -18.06     20.00
   11.6296     37.25     36.77    -18.65     20.00
   11.6397     37.48     36.83    -18.48     20.00
   11.6499     37.72     36.89    -18.30     20.00
   11.6600     37.37     36.94    -18.70     20.00
   11.6702     37.63     37.00    -18.50     20.00
   11.6804     37.40     37.06    -18.79     20.00
   11.6905     37.70     37.12    -18.55     20.00
   11.7007     37.45     37.17    -18.85     20.00
   11.7109     38.15     37.23    -18.21     20.00
   11.7210     37.46     37.29    -18.96     20.00
   11.7312     38.00     37.35    -18.48     20.00
   11.7414     38.79     37.41    -17.75     20.00
   11.7515     38.22     37.47    -18.38     20.00
   11.7617     39.04     37.53    -17.62     20.00
   11.7719     37.62     37.59    -19.10     20.00
   11.7820     38.74     37.65    -18.04     20.00
   11.7922     38.95     37.71    -17.89     20.00
   11.8023     37.95     37.77    -18.95     20.00
   11.8125     38.83     37.83    -18.13     20.00
   11.8227     37.78     37.89    -19.24     20.00
   11.8328     38.40     37.95    -18.68     20.00
   11.8430     37.70     38.01    -19.44     20.00
   11.8532     38.69     38.07    -18.51     20.00
   11.8633     38.91     38.13    -18.35     20.00
   11.8735     38.57     38.19    -18.75     20.00
   11.8837     38.36     38.26    -19.03     20.00
   11.8938     38.63     38.32    -18.82     20.00
   11.9040     37.95     38.38    -19.56     20.00
   11.9142     39.05     38.44    -18.52     20.00
   11.9243     39.09     38.51    -18.55     20.00
   11.9345     37.54     38.57    -20.16     20.00
   11.9447     38.80     38.63    -18.96     20.00
   11.9548     39.73     38.70    -18.10     20.00
   11.9650     39.22     38.76    -18.67     20.00
   11.9751     39.24     38.82    -18.71     20.00
   11.9853     38.24     38.89    -19.78     20.00
   11.9955     39.41     38.95    -18.67     20.00
   12.0056     39.37     39.02    -18.78     20.00
   12.0158     40.33     39.08    -17.88     20.00
   12.0260     38.71     39.15    -19.57     20.00
   12.0361     39.84     39.21    -18.50     20.00
   12.0463     40.22     39.28    -18.19     20.00
   12.0565     39.96     39.35    -18.52     20.00
   12.0666     39.39     39.41    -19.15     20.00
   12.0768     38.99     39.48    -19.62     20.00
   12.0870     39.87     39.55    -18.81     20.00
   12.0971     39.85     39.61    -18.89     20.00
   12.1073     38.68     39.68    -20.13     20.00
   12.1174     40.76     39.75    -18.12     20.00
   12.1276     40.18     39.82    -18.77     20.00
   12.1378     41.38     39.88    -17.63     20.00
   12.1479     39.60     39.95    -19.48     20.00
   12.1581     39.67     40.02    -19.48     20.00
   12.1683     40.40     40.09    -18.82     20.00
   12.1784     40.65     40.16    -18.64     20.00
   12.1886     40.27     40.23    -19.09     20.00
   12.1988     39.79     40.30    -19.64     20.00
   12.2089     41.02     40.37    -18.48     20.00
   12.2191     40.36     40.44    -19.21     20.00
   12.2293     40.76     40.51    -18.88     20.00
   12.2394     40.87     40.58    -18.84     20.00
   12.2496     40.75     40.65    -19.03     20.00
   12.2598     40.32     40.72    -19.53     20.00
   12.2699     41.63     40.79    -18.29     20.00
   12.2801     40.90     40.86    -19.09     20.00
   12.2902     40.74     40.94    -19.33     20.00
   12.3004     40.87     41.01    -19.27     20.00
   12.3106     40.12     41.08    -20.09     20.00
   12.3207     40.95     41.15    -19.33     20.00
   12.3309     41.23     41.23    -19.13     20.00
   12.3411     40.15     41.30    -20.28     20.00
   12.3512     41.41     41.37    -19.09     20.00
   12.3614     41.12     41.45    -19.46     20.00
   12.3716     41.42     41.52    -19.23     20.00
   12.3817     41.29     41.59    -19.43     20.00
   12.3919     42.00     41.67    -18.80     20.00
   12.4021     40.96     41.74    -19.91     20.00
   12.4122     41.68     41.82    -19.27     20.00
   12.4224     41.85     41.89    -19.17     20.00
   12.4325     41.64     41.97    -19.46     20.00
   12.4427     41.19     42.04    -19.98     20.00
   12.4529     42.23     42.12    -19.02     20.00
   12.4630     41.92     42.20    -19.41     20.00
   12.4732     41.74     42.27    -19.66     20.00
   12.4834     42.54     42.35    -18.94     20.00
   12.4935     42.05     42.43    -19.51     20.00
   12.5037     41.94     42.51    -19.70     20.00
   12.5139     41.73     42.58    -19.98     20.00
   12.5240     42.63     42.66    -19.16     20.00
   12.5342     42.69     42.74    -19.18     20.00
   12.5444     42.79     42.82    -19.16     20.00
   12.5545     42.51     42.90    -19.52     20.00
   12.5647     42.29     42.98    -19.82     20.00
   12.5749     43.30     43.05    -18.88     20.00
   12.5850     42.27     43.13    -19.99     20.00
   12.5952     42.67     43.21    -19.67     20.00
   12.6053     42.09     43.29    -20.33     20.00
   12.6155     42.49     43.37    -20.01     20.00
   12.6257     43.35     43.46    -19.24     20.00
   12.6358     42.61     43.54    -20.06     20.00
   12.6460     42.73     43.62    -20.02     20.00
   12.6562     42.07     43.70    -20.76     20.00
   12.6663     42.35     43.78    -20.56     20.00
   12.6765     43.36     43.86    -19.63     20.00
   12.6867     43.52     43.94    -19.55     20.00
   12.6968     43.91     44.03    -19.25     20.00
   12.7070     44.70     44.11    -18.54     20.00
   12.7172     44.13     44.19    -19.19     20.00
   12.7273     44.57     44.28    -18.84     20.00
   12.7375     44.41     44.36    -19.08     20.00
   12.7476     43.90     44.44    -19.67     20.00
   12.7578     45.51     44.53    -18.15     20.00
   12.7680     44.15     44.61    -19.59     20.00
   12.7781     43.91     44.70    -19.92     20.00
   12.7883     44.98     44.78    -18.93     20.00
   12.7985     43.65     44.87    -20.35     20.00
   12.8086     43.59     44.95    -20.49     20.00
   12.8188     45.16     45.04    -19.01     20.00
   12.8290     43.96     45.13    -20.30     20.00
   12.8391     44.88     45.21    -19.46     20.00
   12.8493     45.16     45.30    -19.27     20.00
   12.8595     44.93     45.39    -19.59     20.00
   12.8696     43.95     45.47    -20.65     20.00
   12.8798     44.95     45.56    -19.74     20.00
   12.8900     43.86     45.65    -20.92     20.00
   12.9001     45.72     45.74    -19.15     20.00
   12.9103     44.68     45.83    -20.28     20.00
   12.9204     44.93     45.91    -20.11     20.00
   12.9306     44.75     46.00    -20.38     20.00
   12.9408     44.83     46.09    -20.39     20.00
   12.9509     45.00     46.18    -20.31     20.00
   12.9611     45.40     46.27    -20.00     20.00
   12.9713     45.60     46.36    -19.89     20.00
   12.9814     46.28     46.45    -19.30     20.00
   12.9916     46.03     46.54    -19.64     20.00
   13.0018     45.73     46.64    -20.04     20.00
   13.0119     46.65     46.73    -19.21     20.00
   13.0221     46.02     46.82    -19.93     20.00
   13.0323     46.54     46.91    -19.50     20.00
   13.0424     46.28     47.00    -19.85     20.00
   13.0526     46.17     47.09    -20.05     20.00
   13.0627     46.23     47.19    -20.09     20.00
   13.0729     46.36     47.28    -20.05     20.00
   13.0831     46.44     47.37    -20.06     20.00
   13.0932     45.93     47.47    -20.67     20.00
   13.1034     46.12     47.56    -20.57     20.00
   13.1136     46.84     47.66    -19.95     20.00
   13.1237     47.52     47.75    -19.36     20.00
   13.1339     47.32     47.85    -19.66     20.00
   13.1441     47.56     47.94    -19.51     20.00
   13.1542     46.40     48.04    -20.77     20.00
   13.1644     46.85     48.13    -20.41     20.00
   13.1746     46.55     48.23    -20.81     20.00
   13.1847     46.70     48.32    -20.75     20.00
   13.1949     48.55     48.42    -19.00     20.00
   13.2051     46.99     48.52    -20.66     20.00
   13.2152     46.87     48.61    -20.87     20.00
   13.2254     47.73     48.71    -20.11     20.00
   13.2355     47.27     48.81    -20.67     20.00
   13.2457     47.63     48.91    -20.41     20.00
   13.2559     47.97     49.01    -20.17     20.00
   13.2660     48.29     49.10    -19.94     20.00
   13.2762     48.79     49.20    -19.54     20.00
   13.2864     48.53     49.30    -19.90     20.00
   13.2965     48.34     49.40    -20.19     20.00
   13.3067     47.90     49.50    -20.73     20.00
   13.3169     48.07     49.60    -20.66     20.00
   13.3270     48.02     49.70    -20.81     20.00
   13.3372     48.74     49.80    -20.19     20.00
   13.3474     49.53     49.91    -19.51     20.00
   13.3575     49.09     50.01    -20.05     20.00
   13.3677     49.82     50.11    -19.42     20.00
   13.3778     49.84     50.21    -19.50     20.00
   13.3880     49.32     50.31    -20.12     20.00
   13.3982     49.46     50.41    -20.08     20.00
   13.4083     48.98     50.52    -20.67     20.00
   13.4185     49.07     50.62    -20.68     20.00
   13.4287     48.59     50.72    -21.26     20.00
   13.4388     49.07     50.83    -20.89     20.00
   13.4490     49.01     50.93    -21.05     20.00
   13.4592     50.52     51.04    -19.65     20.00
   13.4693     49.11     51.14    -21.16     20.00
   13.4795     49.45     51.25    -20.93     20.00
   13.4897     49.71     51.35    -20.77     20.00
   13.4998     49.61     51.46    -20.98     20.00
   13.5100     49.70     51.56    -20.99     20.00
   13.5201     50.43     51.67    -20.37     20.00
   13.5303     49.88     51.77    -21.02     20.00
   13.5405     50.51     51.88    -20.50     20.00
   13.5506     51.13     51.99    -19.99     20.00
   13.5608     49.35     52.10    -21.88     20.00
   13.5710     49.71     52.20    -21.62     20.00
   13.5811     52.28     52.31    -19.16     20.00
   13.5913     51.99     52.42    -19.56     20.00
   13.6015     51.98     52.53    -19.68     20.00
   13.6116     51.48     52.64    -20.29     20.00
   13.6218     51.85     52.75    -20.03     20.00
   13.6320     51.78     52.86    -20.21     20.00
   13.6421     51.73     52.97    -20.37     20.00
   13.6523     51.35     53.08    -20.86     20.00
   13.6625     52.51     53.19    -19.81     20.00
   13.6726     51.94     53.30    -20.49     20.00
   13.6828     52.79     53.41    -19.75     20.00
   13.6929     52.14     53.52    -20.51     20.00
   13.7031     52.95     53.63    -19.81     20.00
   13.7133     52.07     53.74    -20.80     20.00
   13.7234     51.93     53.85    -21.05     20.00
   13.7336     52.97     53.97    -20.13     20.00
   13.7438     52.24     54.08    -20.97     20.00
   13.7539     52.96     54.19    -20.36     20.00
   13.7641     53.16     54.31    -20.28     20.00
   13.7743     52.65     54.42    -20.90     20.00
   13.7844     53.75     54.53    -19.91     20.00
   13.7946     53.61     54.65    -20.17     20.00
   13.8048     54.80     54.76    -19.09     20.00
   13.8149     52.71     54.88    -21.30     20.00
   13.8251     53.91     54.99    -20.21     20.00
   13.8352     52.60     55.11    -21.64     20.00
   13.8454     53.97     55.22    -20.38     20.00
   13.8556     53.90     55.34    -20.57     20.00
   13.8657     53.47     55.46    -21.12     20.00
   13.8759     53.26     55.57    -21.44     20.00
   13.8861     54.24     55.69    -20.58     20.00
   13.8962     53.11     55.81    -21.83     20.00
   13.9064     53.77     55.93    -21.29     20.00
   13.9166     55.87     56.04    -19.30     20.00
   13.9267     54.60     56.16    -20.69     20.00
   13.9369     53.62     56.28    -21.79     20.00
   13.9471     54.68     56.40    -20.85     20.00
   13.9572     55.19     56.52    -20.46     20.00
   13.9674     54.29     56.64    -21.48     20.00
   13.9776     54.96     56.76    -20.93     20.00
   13.9877     55.80     56.88    -20.21     20.00
   13.9979     55.07     57.00    -21.06     20.00
   14.0080     55.46     57.12    -20.79     20.00
   14.0182     55.52     57.24    -20.85     20.00
   14.0284     56.07     57.36    -20.42     20.00
   14.0385     56.18     57.48    -20.43     20.00
   14.0487     55.49     57.60    -21.24     20.00
   14.0589     55.48     57.73    -21.38     20.00
   14.0690     56.26     57.85    -20.72     20.00
   14.0792     56.69     57.97    -20.41     20.00
   14.0894     55.65     58.10    -21.58     20.00
   14.0995     55.71     58.22    -21.64     20.00
   14.1097     56.85     58.34    -20.62     20.00
   14.1199     56.63     58.47    -20.97     20.00
   14.1300     56.52     58.59    -21.20     20.00
   14.1402     56.71     58.71    -21.13     20.00
   14.1503     56.85     58.84    -21.12     20.00
   14.1605     56.75     58.96    -21.34     20.00
   14.1707     57.21     59.09    -21.01     20.00
   14.1808     57.48     59.22    -20.87     20.00
   14.1910     58.71     59.34    -19.76     20.00
   14.2012     57.01     59.47    -21.59     20.00
   14.2113     58.28     59.59    -20.44     20.00
   14.2215     57.66     59.72    -21.19     20.00
   14.2317     58.49     59.85    -20.49     20.00
   14.2418     57.84     59.98    -21.27     20.00
   14.2520     58.51     60.10    -20.72     20.00
   14.2622     59.24     60.23    -20.12     20.00
   14.2723     58.63     60.36    -20.86     20.00
   14.2825     58.40     60.49    -21.22     20.00
   14.2927     58.67     60.62    -21.08     20.00
   14.3028     57.84     60.75    -22.04     20.00
   14.3130     59.34     60.88    -20.67     20.00
   14.3231     58.73     61.01    -21.41     20.00
   14.3333     59.55     61.14    -20.72     20.00
   14.3435     60.18     61.27    -20.22     20.00
   14.3536     59.19     61.40    -21.34     20.00
   14.3638     59.44     61.53    -21.22     20.00
   14.3740     59.05     61.66    -21.74     20.00
   14.3841     60.31     61.79    -20.61     20.00
   14.3943     61.46     61.93    -19.60     20.00
   14.4045     61.47     62.06    -19.72     20.00
   14.4146     60.12     62.19    -21.20     20.00
   14.4248     60.61     62.32    -20.84     20.00
   14.4350     62.13     62.46    -19.46     20.00
   14.4451     60.03     62.59    -21.69     20.00
   14.4553     60.08     62.72    -21.77     20.00
   14.4654     60.38     62.86    -21.61     20.00
   14.4756     61.45     62.99    -20.67     20.00
   14.4858     60.71     63.13    -21.55     20.00
   14.4959     61.69     63.26    -20.70     20.00
   14.5061     61.70     63.40    -20.83     20.00
   14.5163     61.22     63.53    -21.44     20.00
   14.5264     61.41     63.67    -21.39     20.00
   14.5366     61.50     63.80    -21.43     20.00
   14.5468     61.40     63.94    -21.67     20.00
   14.5569     62.60     64.08    -20.61     20.00
   14.5671     61.99     64.21    -21.35     20.00
   14.5773     62.67     64.35    -20.81     20.00
   14.5874     62.58     64.49    -21.04     20.00
   14.5976     62.22     64.63    -21.54     20.00
   14.6078     62.05     64.77    -21.85     20.00
   14.6179     63.38     64.90    -20.65     20.00
   14.6281     62.60     65.04    -21.57     20.00
   14.6382     63.56     65.18    -20.75     20.00
   14.6484     63.27     65.32    -21.18     20.00
   14.6586     63.51     65.46    -21.08     20.00
   14.6687     63.81     65.60    -20.92     20.00
   14.6789     65.08     65.74    -19.79     20.00
   14.6891     64.06     65.88    -20.95     20.00
   14.6992     63.57     66.02    -21.58     20.00
   14.7094     63.98     66.16    -21.31     20.00
   14.7196     64.12     66.30    -21.31     20.00
   14.7297     64.50     66.44    -21.07     20.00
   14.7399     65.61     66.59    -20.11     20.00
   14.7501     64.80     66.73    -21.06     20.00
   14.7602     65.07     66.87    -20.93     20.00
   14.7704     66.21     67.01    -19.93     20.00
   14.7805     64.85     67.16    -21.44     20.00
   14.7907     65.05     67.30    -21.38     20.00
   14.8009     65.28     67.44    -21.29     20.00
   14.8110     65.84     67.59    -20.88     20.00
   14.8212     66.37     67.73    -20.49     20.00
   14.8314     65.87     67.88    -21.14     20.00
   14.8415     66.29     68.02    -20.86     20.00
   14.8517     65.75     68.16    -21.54     20.00
   14.8619     66.44     68.31    -21.00     20.00
   14.8720     67.05     68.45    -20.53     20.00
   14.8822     66.69     68.60    -21.04     20.00
   14.8924     67.38     68.75    -20.50     20.00
   14.9025     66.59     68.89    -21.43     20.00
   14.9127     68.16     69.04    -20.01     20.00
   14.9229     68.44     69.19    -19.88     20.00
   14.9330     68.09     69.33    -20.37     20.00
   14.9432     67.22     69.48    -21.39     20.00
   14.9533     67.23     69.63    -21.53     20.00
   14.9635     67.41     69.77    -21.49     20.00
   14.9737     69.34     69.92    -19.71     20.00
   14.9838     69.27     70.07    -19.93     20.00
   14.9940     68.68     70.22    -20.67     20.00
   15.0042     68.71     70.37    -20.79     20.00
   15.0143     68.56     70.52    -21.09     20.00
   15.0245     68.98     70.67    -20.82     20.00
   15.0347     68.79     70.82    -21.16     20.00
   15.0448     68.46     70.97    -21.64     20.00
   15.0550     68.15     71.12    -22.10     20.00
   15.0652     70.01     71.27    -20.39     20.00
   15.0753     69.15     71.42    -21.40     20.00
   15.0855     71.29     71.57    -19.41     20.00
   15.0956     71.27     71.72    -19.58     20.00
   15.1058     71.45     71.87    -19.55     20.00
   15.1160     70.83     72.02    -20.32     20.00
   15.1261     69.77     72.17    -21.53     20.00
   15.1363     70.32     72.33    -21.14     20.00
   15.1465     70.55     72.48    -21.06     20.00
   15.1566     71.87     72.63    -19.89     20.00
   15.1668     70.85     72.79    -21.07     20.00
   15.1770     71.65     72.94    -20.42     20.00
   15.1871     71.35     73.09    -20.87     20.00
   15.1973     71.51     73.25    -20.87     20.00
   15.2075     70.95     73.40    -21.58     20.00
   15.2176     71.11     73.55    -21.57     20.00
   15.2278     71.59     73.71    -21.25     20.00
   15.2380     73.01     73.86    -19.98     20.00
   15.2481     72.79     74.02    -20.36     20.00
   15.2583     73.18     74.17    -20.12     20.00
   15.2684     72.20     74.33    -21.26     20.00
   15.2786     72.45     74.49    -21.17     20.00
   15.2888     74.74     74.64    -19.03     20.00
   15.2989     72.93     74.80    -21.00     20.00
   15.3091     73.15     74.95    -20.93     20.00
   15.3193     73.55     75.11    -20.69     20.00
   15.3294     75.00     75.27    -19.40     20.00
   15.3396     73.89     75.43    -20.67     20.00
   15.3498     73.99     75.58    -20.72     20.00
   15.3599     75.90     75.74    -18.97     20.00
   15.3701     74.20     75.90    -20.83     20.00
   15.3803     75.96     76.06    -19.23     20.00
   15.3904     75.79     76.21    -19.55     20.00
   15.4006     75.48     76.37    -20.02     20.00
   15.4107     75.15     76.53    -20.51     20.00
   15.4209     73.52     76.69    -22.30     20.00
   15.4311     74.39     76.85    -21.59     20.00
   15.4412     75.80     77.01    -20.34     20.00
   15.4514     75.38     77.17    -20.92     20.00
   15.4616     76.68     77.33    -19.78     20.00
   15.4717     76.91     77.49    -19.71     20.00
   15.4819     77.20     77.65    -19.58     20.00
   15.4921     76.00     77.81    -20.94     20.00
   15.5022     77.77     77.97    -19.33     20.00
   15.5124     75.68     78.13    -21.58     20.00
   15.5226     78.09     78.30    -19.34     20.00
   15.5327     77.57     78.46    -20.02     20.00
   15.5429     76.18     78.62    -21.57     20.00
   15.5530     76.77     78.78    -21.14     20.00
   15.5632     77.53     78.94    -20.54     20.00
   15.5734     78.04     79.11    -20.20     20.00
   15.5835     79.90     79.27    -18.50     20.00
   15.5937     77.95     79.43    -20.61     20.00
   15.6039     78.97     79.60    -19.76     20.00
   15.6140     80.43     79.76    -18.46     20.00
   15.6242     79.04     79.92    -20.01     20.00
   15.6344     79.01     80.09    -20.21     20.00
   15.6445     78.82     80.25    -20.56     20.00
   15.6547     79.11     80.42    -20.44     20.00
   15.6649     80.41     80.58    -19.30     20.00
   15.6750     80.22     80.75    -19.66     20.00
   15.6852     80.55     80.91    -19.49     20.00
   15.6954     78.60     81.08    -21.61     20.00
   15.7055     82.51     81.24    -17.86     20.00
   15.7157     81.52     81.41    -19.02     20.00
   15.7258     80.56     81.57    -20.14     20.00
   15.7360     81.45     81.74    -19.42     20.00
   15.7462     80.49     81.91    -20.55     20.00
   15.7563     81.84     82.07    -19.36     20.00
   15.7665     81.43     82.24    -19.94     20.00
   15.7767     81.91     82.41    -19.63     20.00
   15.7868     82.46     82.57    -19.24     20.00
   15.7970     83.78     82.74    -18.09     20.00
   15.8072     83.13     82.91    -18.91     20.00
   15.8173     82.32     83.08    -19.89     20.00
   15.8275     82.93     83.24    -19.44     20.00
   15.8377     82.77     83.41    -19.77     20.00
   15.8478     82.47     83.58    -20.24     20.00
   15.8580     82.21     83.75    -20.67     20.00
   15.8681     83.02     83.92    -20.03     20.00
   15.8783     82.96     84.09    -20.26     20.00
   15.8885     84.13     84.26    -19.26     20.00
   15.8986     85.29     84.42    -18.26     20.00
   15.9088     84.29     84.60    -19.44     20.00
   15.9190     85.18     84.77    -18.72     20.00
   15.9291     84.67     84.93    -19.39     20.00
   15.9393     84.57     85.11    -19.67     20.00
   15.9495     85.37     85.28    -19.04     20.00
   15.9596     84.55     85.45    -20.03     20.00
   15.9698     84.89     85.62    -19.86     20.00
   15.9800     85.30     85.79    -19.62     20.00
   15.9901     85.84     85.96    -19.25     20.00
   16.0003     86.07     86.13    -19.19     20.00
   16.0105     86.35     86.30    -19.08     20.00
   16.0206     86.09     86.48    -19.52     20.00
   16.0308     87.95     86.65    -17.83     20.00
   16.0409     86.33     86.82    -19.62     20.00
   16.0511     87.40     86.99    -18.72     20.00
   16.0613     87.01     87.17    -19.29     20.00
   16.0714     86.58     87.34    -19.89     20.00
   16.0816     88.32     87.51    -18.32     20.00
   16.0918     87.73     87.68    -19.08     20.00
   16.1019     88.43     87.86    -18.56     20.00
   16.1121     88.70     88.03    -18.46     20.00
   16.1223     89.36     88.21    -17.98     20.00
   16.1324     89.35     88.38    -18.16     20.00
   16.1426     89.34     88.55    -18.34     20.00
   16.1528     89.20     88.73    -18.66     20.00
   16.1629     90.56     88.90    -17.47     20.00
   16.1731     89.85     89.08    -18.36     20.00
   16.1832     90.49     89.25    -17.89     20.00
   16.1934     90.71     89.43    -17.85     20.00
   16.2036     90.28     89.60    -18.45     20.00
   16.2137     90.75     89.78    -18.16     20.00
   16.2239     90.61     89.96    -18.48     20.00
   16.2341     91.32     90.13    -17.94     20.00
   16.2442     89.84     90.31    -19.60     20.00
   16.2544     91.26     90.48    -18.35     20.00
   16.2646     92.41     90.66    -17.38     20.00
   16.2747     93.18     90.84    -16.79     20.00
   16.2849     93.06     91.02    -17.09     20.00
   16.2951     92.25     91.19    -18.07     20.00
   16.3052     92.20     91.37    -18.30     20.00
   16.3154     93.17     91.55    -17.51     20.00
   16.3256     92.36     91.73    -18.50     20.00
   16.3357     93.15     91.90    -17.88     20.00
   16.3459     92.78     92.08    -18.43     20.00
   16.3560     93.52     92.26    -17.87     20.00
   16.3662     94.80     92.44    -16.77     20.00
   16.3764     93.15     92.62    -18.60     20.00
   16.3865     94.10     92.80    -17.83     20.00
   16.3967     94.32     92.98    -17.79     20.00
   16.4069     94.69     93.16    -17.60     20.00
   16.4170     96.79     93.34    -15.68     20.00
   16.4272     96.58     93.52    -16.07     20.00
   16.4374     95.28     93.70    -17.55     20.00
   16.4475     96.36     93.88    -16.65     20.00
   16.4577     96.27     94.06    -16.92     20.00
   16.4679     96.46     94.24    -16.91     20.00
   16.4780     96.46     94.42    -17.09     20.00
   16.4882     97.04     94.60    -16.69     20.00
   16.4983     95.54     94.78    -18.37     20.00
   16.5085     97.73     94.97    -16.37     20.00
   16.5187     96.09     95.15    -18.19     20.00
   16.5288     97.37     95.33    -17.09     20.00
   16.5390     99.49     95.51    -15.15     20.00
   16.5492     97.49     95.70    -17.34     20.00
   16.5593     99.42     95.88    -15.59     20.00
   16.5695     97.57     96.06    -17.62     20.00
   16.5797     99.38     96.25    -16.00     20.00
   16.5898     99.57     96.43    -15.99     20.00
   16.6000    100.30     96.62    -15.45     20.00
   16.6102     99.26     96.80    -16.67     20.00
   16.6203     99.38     96.98    -16.73     20.00
   16.6305    100.86     97.17    -15.44     20.00
   16.6407    100.32     97.36    -16.17     20.00
   16.6508    101.37     97.54    -15.30     20.00
   16.6610    100.02     97.73    -16.84     20.00
   16.6711     99.28     97.91    -17.76     20.00
   16.6813    100.41     98.10    -16.82     20.00
   16.6915    101.93     98.29    -15.49     20.00
   16.7016    102.02     98.47    -15.58     20.00
   16.7118    102.90     98.66    -14.89     20.00
   16.7220    101.93     98.85    -16.05     20.00
   16.7321    103.24     99.03    -14.92     20.00
   16.7423    102.63     99.22    -15.72     20.00
   16.7525    102.67     99.41    -15.87     20.00
   16.7626    103.29     99.60    -15.44     20.00
   16.7728    103.81     99.79    -15.11     20.00
   16.7830    103.49     99.98    -15.62     20.00
   16.7931    102.41    100.17    -16.89     20.00
   16.8033    103.37    100.36    -16.12     20.00
   16.8134    103.43    100.55    -16.25     20.00
   16.8236    105.06    100.74    -14.81     20.00
   16.8338    103.94    100.93    -16.12     20.00
   16.8439    104.82    101.12    -15.43     20.00
   16.8541    103.74    101.32    -16.71     20.00
   16.8643    104.32    101.51    -16.32     20.00
   16.8744    105.14    101.70    -15.69     20.00
   16.8846    105.95    101.90    -15.08     20.00
   16.8948    105.13    102.09    -16.09     20.00
   16.9049    106.07    102.29    -15.35     20.00
   16.9151    105.68    102.48    -15.93     20.00
   16.9253    105.88    102.68    -15.93     20.00
   16.9354    107.87    102.87    -14.13     20.00
   16.9456    105.87    103.07    -16.33     20.00
   16.9558    106.67    103.27    -15.73     20.00
   16.9659    106.38    103.46    -16.21     20.00
   16.9761    106.70    103.66    -16.09     20.00
   16.9862    106.77    103.86    -16.22     20.00
   16.9964    107.83    104.06    -15.36     20.00
   17.0066    107.84    104.26    -15.55     20.00
   17.0167    106.42    104.46    -17.17     20.00
   17.0269    107.32    104.66    -16.47     20.00
   17.0371    108.35    104.87    -15.65     20.00
   17.0472    109.51    105.07    -14.69     20.00
   17.0574    109.28    105.27    -15.12     20.00
   17.0676    109.71    105.48    -14.90     20.00
   17.0777    109.71    105.68    -15.10     20.00
   17.0879    108.67    105.89    -16.35     20.00
   17.0981    109.29    106.10    -15.94     20.00
   17.1082    108.68    106.30    -16.75     20.00
   17.1184    111.02    106.51    -14.62     20.00
   17.1285    110.77    106.72    -15.08     20.00
   17.1387    109.60    106.93    -16.46     20.00
   17.1489    111.37    107.15    -14.91     20.00
   17.1590    110.96    107.36    -15.53     20.00
   17.1692    110.70    107.58    -16.01     20.00
   17.1794    112.26    107.79    -14.66     20.00
   17.1895    110.63    108.01    -16.51     20.00
   17.1997    111.06    108.23    -16.30     20.00
   17.2099    113.98    108.45    -13.60     20.00
   17.2200    112.60    108.67    -15.20     20.00
   17.2302    111.55    108.90    -16.48     20.00
   17.2404    115.68    109.12    -12.57     20.00
   17.2505    111.82    109.35    -16.66     20.00
   17.2607    112.38    109.58    -16.33     20.00
   17.2709    113.10    109.81    -15.84     20.00
   17.2810    114.24    110.05    -14.94     20.00
   17.2912    114.90    110.28    -14.51     20.00
   17.3013    114.79    110.52    -14.86     20.00
   17.3115    113.80    110.77    -16.10     20.00
   17.3217    117.06    111.01    -13.08     20.00
   17.3318    116.58    111.26    -13.81     20.00
   17.3420    115.29    111.51    -15.35     20.00
   17.3522    115.81    111.76    -15.08     20.00
   17.3623    116.77    112.02    -14.38     20.00
   17.3725    116.60    112.28    -14.81     20.00
   17.3827    117.13    112.55    -14.55     20.00
   17.3928    116.68    112.82    -15.27     20.00
   17.4030    117.09    113.09    -15.13     20.00
   17.4132    116.79    113.37    -15.71     20.00
   17.4233    118.90    113.65    -13.88     20.00
   17.4335    118.84    113.94    -14.23     20.00
   17.4436    118.38    114.24    -14.99     20.00
   17.4538    120.19    114.54    -13.48     20.00
   17.4640    119.13    114.84    -14.84     20.00
   17.4741    120.15    115.15    -14.13     20.00
   17.4843    119.96    115.47    -14.64     20.00
   17.4945    119.45    115.80    -15.48     20.00
   17.5046    121.24    116.13    -14.02     20.00
   17.5148    121.31    116.48    -14.30     20.00
   17.5250    119.99    116.83    -15.97     20.00
   17.5351    121.52    117.18    -14.79     20.00
   17.5453    121.76    117.55    -14.92     20.00
   17.5555    121.34    117.93    -15.72     20.00
   17.5656    121.23    118.32    -16.22     20.00
   17.5758    122.55    118.72    -15.30     20.00
   17.5859    121.60    119.12    -16.65     20.00
   17.5961    122.84    119.55    -15.84     20.00
   17.6063    126.21    119.98    -12.90     20.00
   17.6164    125.10    120.42    -14.45     20.00
   17.6266    123.10    120.88    -16.91     20.00
   17.6368    126.74    121.36    -13.75     20.00
   17.6469    126.84    121.84    -14.13     20.00
   17.6571    126.17    122.34    -15.30     20.00
   17.6673    128.29    122.86    -13.70     20.00
   17.6774    125.98    123.39    -16.54     20.00
   17.6876    127.40    123.94    -15.67     20.00
   17.6978    129.16    124.51    -14.48     20.00
   17.7079    128.25    125.10    -15.98     20.00
   17.7181    128.52    125.70    -16.31     20.00
   17.7283    130.63    126.33    -14.83     20.00
   17.7384    128.37    126.97    -17.73     20.00
   17.7486    132.07    127.63    -14.69     20.00
   17.7587    133.34    128.31    -14.10     20.00
   17.7689    134.14    129.02    -14.01     20.00
   17.7791    134.43    129.75    -14.45     20.00
   17.7892    132.34    130.50    -17.29     20.00
   17.7994    134.21    131.28    -16.20     20.00
   17.8096    134.41    132.08    -16.80     20.00
   17.8197    135.99    132.90    -16.04     20.00
   17.8299    134.94    133.76    -17.95     20.00
   17.8401    136.71    134.64    -17.06     20.00
   17.8502    136.32    135.53    -18.34     20.00
   17.8604    137.76    136.47    -17.84     20.00
   17.8706    138.90    137.43    -17.66     20.00
   17.8807    141.13    138.41    -16.41     20.00
   17.8909    140.66    139.42    -17.89     20.00
   17.9010    140.93    140.46    -18.66     20.00
   17.9112    142.88    141.53    -17.78     20.00
   17.9214    142.72    142.63    -19.04     20.00
   17.9315    143.98    143.75    -18.90     20.00
   17.9417    144.87    144.92    -19.18     20.00
   17.9519    145.99    146.11    -19.25     20.00
   17.9620    144.91    147.32    -21.54     20.00
   17.9722    149.80    148.57    -17.90     20.00
   17.9824    147.17    149.85    -21.81     20.00
   17.9925    151.38    151.15    -18.90     20.00
   18.0027    151.43    152.49    -20.19     20.00
   18.0129    152.48    153.86    -20.51     20.00
   18.0230    151.06    155.24    -23.31     20.00
   18.0332    155.95    156.67    -19.85     20.00
   18.0434    155.45    158.12    -21.80     20.00
   18.0535    157.05    159.59    -21.67     20.00
   18.0637    158.59    161.10    -21.64     20.00
   18.0738    157.73    162.61    -24.01     20.00
   18.0840    160.79    164.17    -22.51     20.00
   18.0942    164.19    165.75    -20.69     20.00
   18.1043    163.96    167.34    -22.51     20.00
   18.1145    163.23    168.97    -24.87     20.00
   18.1247    167.01    170.62    -22.74     20.00
   18.1348    167.91    172.27    -23.49     20.00
   18.1450    168.91    173.95    -24.17     20.00
   18.1552    171.77    175.65    -23.01     20.00
   18.1653    172.49    177.35    -23.99     20.00
   18.1755    173.25    179.08    -24.96     20.00
   18.1857    180.05    180.81    -19.89     20.00
   18.1958    178.22    182.54    -23.45     20.00
   18.2060    179.12    184.29    -24.30     20.00
   18.2161    182.98    186.03    -22.18     20.00
   18.2263    186.89    187.78    -20.02     20.00
   18.2365    185.61    189.53    -23.05     20.00
   18.2466    188.03    191.26    -22.36     20.00
   18.2568    190.69    193.00    -21.44     20.00
   18.2670    189.52    194.72    -24.33     20.00
   18.2771    194.10    196.42    -21.45     20.00
   18.2873    193.79    198.11    -23.45     20.00
   18.2975    195.12    199.78    -23.79     20.00
   18.3076    200.95    201.41    -19.59     20.00
   18.3178    202.13    203.03    -20.03     20.00
   18.3280    201.98    204.61    -21.76     20.00
   18.3381    206.44    206.13    -18.82     20.00
   18.3483    207.83    207.63    -18.93     20.00
   18.3585    207.04    209.09    -21.18     20.00
   18.3686    210.38    210.47    -19.22     20.00
   18.3788    210.76    211.82    -20.19     20.00
   18.3889    212.23    213.09    -19.99     20.00
   18.3991    214.71    214.30    -18.72     20.00
   18.4093    213.37    215.45    -21.21     20.00
   18.4194    214.15    216.52    -21.50     20.00
   18.4296    218.23    217.51    -18.41     20.00
   18.4398    219.95    218.43    -17.61     20.00
   18.4499    220.57    219.25    -17.81     20.00
   18.4601    222.66    219.99    -16.46     20.00
   18.4703    223.59    220.64    -16.18     20.00
   18.4804    223.41    221.19    -16.91     20.00
   18.4906    225.43    221.65    -15.35     20.00
   18.5008    225.62    222.01    -15.52     20.00
   18.5109    224.45    222.27    -16.95     20.00
   18.5211    225.51    222.43    -16.05     20.00
   18.5312    227.01    222.48    -14.60     20.00
   18.5414    226.02    222.44    -15.55     20.00
   18.5516    227.02    222.30    -14.41     20.00
   18.5617    227.05    222.06    -14.14     20.00
   18.5719    224.52    221.73    -16.34     20.00
   18.5821    225.65    221.29    -14.77     20.00
   18.5922    223.87    220.77    -16.03     20.00
   18.6024    221.74    220.16    -17.55     20.00
   18.6126    225.24    219.45    -13.34     20.00
   18.6227    222.11    218.68    -15.70     20.00
   18.6329    221.29    217.81    -15.65     20.00
   18.6431    220.51    216.87    -15.49     20.00
   18.6532    218.39    215.87    -16.61     20.00
   18.6634    216.05    214.79    -17.87     20.00
   18.6736    213.73    213.65    -19.05     20.00
   18.6837    215.26    212.46    -16.33     20.00
   18.6939    212.55    211.20    -17.78     20.00
   18.7040    212.57    209.91    -16.47     20.00
   18.7142    212.33    208.57    -15.37     20.00
   18.7244    206.05    207.18    -20.26     20.00
   18.7345    206.40    205.77    -18.50     20.00
   18.7447    206.95    204.31    -16.49     20.00
   18.7549    200.99    202.83    -20.97     20.00
   18.7650    201.55    201.33    -18.91     20.00
   18.7752    199.40    199.81    -19.54     20.00
   18.7854    196.44    198.26    -20.95     20.00
   18.7955    195.62    196.72    -20.23     20.00
   18.8057    193.85    195.15    -20.43     20.00
   18.8159    192.18    193.58    -20.53     20.00
   18.8260    188.27    192.01    -22.87     20.00
   18.8362    189.60    190.44    -19.97     20.00
   18.8463    186.95    188.88    -21.06     20.00
   18.8565    185.88    187.30    -20.55     20.00
   18.8667    184.30    185.74    -20.57     20.00
   18.8768    181.48    184.20    -21.85     20.00
   18.8870    180.10    182.65    -21.68     20.00
   18.8972    178.60    181.12    -21.65     20.00
   18.9073    176.64    179.62    -22.11     20.00
   18.9175    174.20    178.12    -23.05     20.00
   18.9277    175.04    176.64    -20.73     20.00
   18.9378    172.40    175.19    -21.92     20.00
   18.9480    172.70    173.75    -20.18     20.00
   18.9582    171.41    172.33    -20.05     20.00
   18.9683    167.12    170.95    -22.96     20.00
   18.9785    168.93    169.58    -19.78     20.00
   18.9887    166.86    168.23    -20.50     20.00
   18.9988    165.85    166.93    -20.21     20.00
   19.0090    165.13    165.63    -19.63     20.00
   19.0191    163.70    164.38    -19.81     20.00
   19.0293    161.49    163.14    -20.78     20.00
   19.0395    160.73    161.93    -20.33     20.00
   19.0496    159.47    160.76    -20.42     20.00
   19.0598    158.01    159.61    -20.73     20.00
   19.0700    157.43    158.49    -20.19     20.00
   19.0801    157.82    157.41    -18.72     20.00
   19.0903    154.32    156.34    -21.15     20.00
   19.1005    154.01    155.31    -20.43     20.00
   19.1106    152.55    154.31    -20.89     20.00
   19.1208    151.35    153.34    -21.12     20.00
   19.1310    151.79    152.39    -19.73     20.00
   19.1411    150.23    151.48    -20.38     20.00
   19.1513    149.83    150.59    -19.89     20.00
   19.1614    149.51    149.74    -19.36     20.00
   19.1716    148.10    148.91    -19.94     20.00
   19.1818    146.74    148.10    -20.49     20.00
   19.1919    147.04    147.33    -19.42     20.00
   19.2021    147.28    146.58    -18.43     20.00
   19.2123    145.87    145.86    -19.12     20.00
   19.2224    145.39    145.17    -18.91     20.00
   19.2326    142.68    144.49    -20.94     20.00
   19.2428    143.09    143.85    -19.89     20.00
   19.2529    142.29    143.23    -20.07     20.00
   19.2631    142.95    142.63    -18.81     20.00
   19.2733    142.83    142.05    -18.35     20.00
   19.2834    140.29    141.50    -20.34     20.00
   19.2936    141.40    140.97    -18.70     20.00
   19.3038    139.73    140.46    -19.86     20.00
   19.3139    140.43    139.97    -18.67     20.00
   19.3241    139.20    139.50    -19.43     20.00
   19.3342    139.51    139.05    -18.67     20.00
   19.3444    139.22    138.62    -18.53     20.00
   19.3546    138.20    138.20    -19.13     20.00
   19.3647    138.46    137.81    -18.48     20.00
   19.3749    138.23    137.43    -18.33     20.00
   19.3851    137.43    137.06    -18.76     20.00
   19.3952    136.54    136.72    -19.31     20.00
   19.4054    137.38    136.38    -18.13     20.00
   19.4156    135.45    136.06    -19.74     20.00
   19.4257    134.21    135.76    -20.68     20.00
   19.4359    133.74    135.46    -20.85     20.00
   19.4461    135.90    135.18    -18.41     20.00
   19.4562    135.82    134.91    -18.22     20.00
   19.4664    136.27    134.66    -17.52     20.00
   19.4765    133.82    134.41    -19.72     20.00
   19.4867    131.12    134.18    -22.19     20.00
   19.4969    134.01    133.95    -19.07     20.00
   19.5070    133.88    133.74    -18.99     20.00
   19.5172    133.74    133.53    -18.92     20.00
   19.5274    132.80    133.33    -19.66     20.00
   19.5375    132.99    133.14    -19.28     20.00
   19.5477    133.91    132.96    -18.18     20.00
   19.5579    133.38    132.78    -18.53     20.00
   19.5680    131.86    132.62    -19.89     20.00
   19.5782    131.85    132.45    -19.73     20.00
   19.5884    131.99    132.30    -19.44     20.00
   19.5985    132.48    132.15    -18.80     20.00
   19.6087    131.27    132.01    -19.87     20.00
   19.6188    131.23    131.87    -19.77     20.00
   19.6290    133.16    131.74    -17.71     20.00
   19.6392    130.45    131.61    -20.29     20.00
   19.6493    130.59    131.49    -20.03     20.00
   19.6595    131.21    131.37    -19.29     20.00
   19.6697    131.18    131.26    -19.21     20.00
   19.6798    132.66    131.15    -17.62     20.00
   19.6900    129.24    131.04    -20.93     20.00
   19.7002    128.62    130.94    -21.45     20.00
   19.7103    130.40    130.85    -19.58     20.00
   19.7205    131.62    130.75    -18.26     20.00
   19.7307    129.76    130.66    -20.03     20.00
   19.7408    130.65    130.57    -19.05     20.00
   19.7510    130.88    130.49    -18.74     20.00
   19.7612    131.00    130.41    -18.54     20.00
   19.7713    130.82    130.33    -18.64     20.00
   19.7815    131.06    130.26    -18.33     20.00
   19.7916    130.80    130.19    -18.52     20.00
   19.8018    130.57    130.13    -18.69     20.00
   19.8120    131.63    130.06    -17.56     20.00
   19.8221    129.44    130.00    -19.69     20.00
   19.8323    129.91    129.95    -19.17     20.00
   19.8425    129.73    129.90    -19.30     20.00
   19.8526    127.29    129.85    -21.69     20.00
   19.8628    129.80    129.80    -19.13     20.00
   19.8730    130.22    129.76    -18.67     20.00
   19.8831    127.76    129.73    -21.10     20.00
   19.8933    129.96    129.70    -18.87     20.00
   19.9035    130.77    129.67    -18.03     20.00
   19.9136    128.73    129.65    -20.05     20.00
   19.9238    130.89    129.63    -17.87     20.00
   19.9339    128.69    129.62    -20.06     20.00
   19.9441    128.67    129.62    -20.08     20.00
   19.9543    130.48    129.62    -18.27     20.00
   19.9644    131.33    129.63    -17.43     20.00
   19.9746    129.45    129.64    -19.32     20.00
   19.9848    130.48    129.66    -18.31     20.00
   19.9949    131.66    129.69    -17.16     20.00
   20.0051    129.66    129.72    -19.19     20.00
   20.0153    129.21    129.76    -19.68     20.00
   20.0254    131.14    129.81    -17.80     20.00
   20.0356    129.07    129.87    -19.93     20.00
   20.0458    130.95    129.94    -18.12     20.00
   20.0559    130.81    130.01    -18.33     20.00
   20.0661    127.99    130.09    -21.23     20.00
   20.0763    131.81    130.18    -17.50     20.00
   20.0864    130.46    130.28    -18.95     20.00
   20.0966    131.15    130.39    -18.37     20.00
   20.1067    133.04    130.50    -16.59     20.00
   20.1169    132.96    130.63    -16.80     20.00
   20.1271    132.12    130.76    -17.77     20.00
   20.1372    130.77    130.90    -19.26     20.00
   20.1474    131.29    131.05    -18.89     20.00
   20.1576    132.23    131.21    -18.11     20.00
   20.1677    132.29    131.37    -18.21     20.00
   20.1779    134.02    131.54    -16.65     20.00
   20.1881    130.05    131.72    -20.80     20.00
   20.1982    132.62    131.91    -18.42     20.00
   20.2084    131.27    132.10    -19.96     20.00
   20.2186    134.26    132.29    -17.16     20.00
   20.2287    132.92    132.49    -18.70     20.00
   20.2389    134.01    132.69    -17.81     20.00
   20.2490    133.44    132.89    -18.58     20.00
   20.2592    133.05    133.10    -19.18     20.00
   20.2694    134.12    133.30    -18.31     20.00
   20.2795    133.70    133.50    -18.93     20.00
   20.2897    136.18    133.70    -16.65     20.00
   20.2999    133.96    133.90    -19.07     20.00
   20.3100    133.13    134.08    -20.08     20.00
   20.3202    134.29    134.26    -19.10     20.00
   20.3304    136.12    134.43    -17.44     20.00
   20.3405    134.54    134.59    -19.18     20.00
   20.3507    133.71    134.73    -20.15     20.00
   20.3609    133.80    134.86    -20.19     20.00
   20.3710    132.01    134.96    -22.08     20.00
   20.3812    135.42    135.05    -18.76     20.00
   20.3914    133.90    135.12    -20.35     20.00
   20.4015    134.21    135.16    -20.08     20.00
   20.4117    132.69    135.17    -21.61     20.00
   20.4218    135.26    135.16    -19.03     20.00
   20.4320    132.30    135.12    -21.95     20.00
   20.4422    133.90    135.06    -20.29     20.00
   20.4523    134.19    134.96    -19.90     20.00
   20.4625    132.57    134.84    -21.40     20.00
   20.4727    134.99    134.68    -18.82     20.00
   20.4828    135.24    134.50    -18.39     20.00
   20.4930    134.54    134.30    -18.89     20.00
   20.5032    133.63    134.07    -19.57     20.00
   20.5133    135.18    133.81    -17.76     20.00
   20.5235    132.53    133.54    -20.14     20.00
   20.5337    134.76    133.24    -17.61     20.00
   20.5438    132.91    132.93    -19.15     20.00
   20.5540    131.64    132.61    -20.10     20.00
   20.5641    133.07    132.27    -18.33     20.00
   20.5743    132.46    131.92    -18.59     20.00
   20.5845    131.23    131.56    -19.46     20.00
   20.5946    131.84    131.19    -18.48     20.00
   20.6048    133.62    130.82    -16.33     20.00
   20.6150    131.10    130.44    -18.47     20.00
   20.6251    131.75    130.06    -17.44     20.00
   20.6353    131.46    129.68    -17.35     20.00
   20.6455    128.71    129.30    -19.72     20.00
   20.6556    131.62    128.93    -16.44     20.00
   20.6658    130.23    128.55    -17.45     20.00
   20.6760    129.64    128.18    -17.67     20.00
   20.6861    129.50    127.81    -17.44     20.00
   20.6963    127.99    127.45    -18.59     20.00
   20.7065    127.63    127.10    -18.60     20.00
   20.7166    129.46    126.75    -16.42     20.00
   20.7268    129.53    126.41    -16.01     20.00
   20.7369    126.82    126.07    -18.38     20.00
   20.7471    126.76    125.75    -18.12     20.00
   20.7573    127.03    125.43    -17.53     20.00
   20.7674    126.54    125.12    -17.71     20.00
   20.7776    126.10    124.82    -17.85     20.00
   20.7878    126.57    124.52    -17.08     20.00
   20.7979    124.34    124.24    -19.03     20.00
   20.8081    125.24    123.97    -17.86     20.00
   20.8183    123.63    123.70    -19.20     20.00
   20.8284    123.68    123.44    -18.89     20.00
   20.8386    124.17    123.19    -18.15     20.00
   20.8488    122.54    122.95    -19.54     20.00
   20.8589    122.72    122.72    -19.13     20.00
   20.8691    121.90    122.50    -19.73     20.00
   20.8792    123.34    122.29    -18.08     20.00
   20.8894    122.79    122.08    -18.42     20.00
   20.8996    121.40    121.88    -19.61     20.00
   20.9097    121.01    121.69    -19.81     20.00
   20.9199    118.93    121.50    -21.70     20.00
   20.9301    119.64    121.33    -20.82     20.00
   20.9402    121.21    121.16    -19.08     20.00
   20.9504    117.65    120.99    -22.47     20.00
   20.9606    117.97    120.84    -22.00     20.00
   20.9707    119.08    120.68    -20.73     20.00
   20.9809    117.12    120.54    -22.55     20.00
   20.9911    119.61    120.40    -19.92     20.00
   21.0012    118.61    120.26    -20.78     20.00
   21.0114    116.99    120.13    -22.27     20.00
   21.0216    117.69    120.01    -21.45     20.00
   21.0317    118.57    119.89    -20.45     20.00
   21.0419    115.42    119.78    -23.49     20.00
   21.0520    116.89    119.67    -21.91     20.00
   21.0622    117.80    119.56    -20.89     20.00
   21.0724    115.84    119.46    -22.75     20.00
   21.0825    118.15    119.36    -20.34     20.00
   21.0927    115.40    119.27    -23.00     20.00
   21.1029    115.60    119.18    -22.71     20.00
   21.1130    114.94    119.09    -23.28     20.00
   21.1232    115.04    119.01    -23.10     20.00
   21.1334    117.04    118.94    -21.03     20.00
   21.1435    114.73    118.86    -23.26     20.00
   21.1537    113.86    118.79    -24.06     20.00
   21.1639    113.11    118.73    -24.75     20.00
   21.1740    115.28    118.67    -22.52     20.00
   21.1842    113.96    118.61    -23.78     20.00
   21.1943    113.88    118.55    -23.80     20.00
   21.2045    113.80    118.50    -23.83     20.00
   21.2147    113.31    118.46    -24.28     20.00
   21.2248    113.46    118.42    -24.09     20.00
   21.2350    115.01    118.38    -22.50     20.00
   21.2452    114.56    118.35    -22.92     20.00
   21.2553    113.93    118.32    -23.52     20.00
   21.2655    113.69    118.29    -23.73     20.00
   21.2757    113.30    118.27    -24.10     20.00
   21.2858    112.38    118.26    -25.01     20.00
   21.2960    114.20    118.25    -23.18     20.00
   21.3062    112.51    118.24    -24.86     20.00
   21.3163    113.41    118.24    -23.96     20.00
   21.3265    114.03    118.24    -23.34     20.00
   21.3366    114.54    118.25    -22.84     20.00
   21.3468    111.28    118.27    -26.12     20.00
   21.3570    114.05    118.29    -23.37     20.00
   21.3671    113.55    118.31    -23.89     20.00
   21.3773    112.48    118.35    -25.00     20.00
   21.3875    113.04    118.38    -24.47     20.00
   21.3976    114.40    118.43    -23.16     20.00
   21.4078    113.14    118.48    -24.47     20.00
   21.4180    112.66    118.54    -25.01     20.00
   21.4281    113.88    118.60    -23.85     20.00
   21.4383    113.77    118.67    -24.03     20.00
   21.4485    113.52    118.74    -24.35     20.00
   21.4586    113.50    118.83    -24.46     20.00
   21.4688    112.01    118.92    -26.04     20.00
   21.4790    115.96    119.01    -22.18     20.00
   21.4891    116.16    119.12    -22.09     20.00
   21.4993    113.35    119.23    -25.01     20.00
   21.5094    114.67    119.35    -23.81     20.00
   21.5196    117.25    119.48    -21.36     20.00
   21.5298    114.97    119.61    -23.77     20.00
   21.5399    115.82    119.75    -23.06     20.00
   21.5501    118.28    119.90    -20.75     20.00
   21.5603    115.79    120.06    -23.40     20.00
   21.5704    118.23    120.23    -21.13     20.00
   21.5806    116.87    120.40    -22.66     20.00
   21.5908    115.60    120.59    -24.12     20.00
   21.6009    119.12    120.78    -20.79     20.00
   21.6111    118.54    120.98    -21.57     20.00
   21.6213    116.38    121.19    -23.94     20.00
   21.6314    120.29    121.41    -20.25     20.00
   21.6416    119.09    121.63    -21.67     20.00
   21.6517    120.12    121.86    -20.87     20.00
   21.6619    121.10    122.11    -20.14     20.00
   21.6721    122.11    122.36    -19.38     20.00
   21.6822    122.59    122.62    -19.16     20.00
   21.6924    125.20    122.89    -16.82     20.00
   21.7026    122.84    123.17    -19.46     20.00
   21.7127    122.75    123.45    -19.83     20.00
   21.7229    125.07    123.75    -17.81     20.00
   21.7331    126.51    124.05    -16.67     20.00
   21.7432    125.62    124.36    -17.87     20.00
   21.7534    126.63    124.68    -17.18     20.00
   21.7636    126.34    125.01    -17.80     20.00
   21.7737    125.89    125.34    -18.58     20.00
   21.7839    127.61    125.69    -17.21     20.00
   21.7941    131.01    126.04    -14.16     20.00
   21.8042    128.37    126.40    -17.16     20.00
   21.8144    130.26    126.77    -15.64     20.00
   21.8245    131.13    127.14    -15.14     20.00
   21.8347    129.60    127.52    -17.05     20.00
   21.8449    132.04    127.91    -15.00     20.00
   21.8550    133.35    128.30    -14.08     20.00
   21.8652    132.30    128.70    -15.53     20.00
   21.8754    133.66    129.11    -14.58     20.00
   21.8855    133.66    129.52    -14.99     20.00
   21.8957    134.69    129.94    -14.38     20.00
   21.9059    133.77    130.36    -15.72     20.00
   21.9160    134.52    130.78    -15.39     20.00
   21.9262    135.38    131.22    -14.97     20.00
   21.9364    133.85    131.65    -16.93     20.00
   21.9465    135.93    132.09    -15.29     20.00
   21.9567    133.79    132.53    -17.87     20.00
   21.9668    136.97    132.97    -15.13     20.00
   21.9770    137.90    133.41    -14.64     20.00
   21.9872    137.16    133.86    -15.83     20.00
   21.9973    137.32    134.30    -16.11     20.00
   22.0075    138.58    134.75    -15.30     20.00
   22.0177    137.90    135.19    -16.42     20.00
   22.0278    138.96    135.63    -15.80     20.00
   22.0380    138.42    136.07    -16.78     20.00
   22.0482    138.13    136.51    -17.51     20.00
   22.0583    138.93    136.94    -17.14     20.00
   22.0685    140.22    137.38    -16.29     20.00
   22.0787    139.99    137.80    -16.94     20.00
   22.0888    141.58    138.22    -15.77     20.00
   22.0990    140.86    138.63    -16.90     20.00
   22.1092    141.20    139.03    -16.96     20.00
   22.1193    140.88    139.43    -17.68     20.00
   22.1295    141.89    139.81    -17.05     20.00
   22.1396    141.30    140.18    -18.01     20.00
   22.1498    142.15    140.55    -17.53     20.00
   22.1600    141.45    140.90    -18.58     20.00
   22.1701    142.43    141.23    -17.93     20.00
   22.1803    142.44    141.55    -18.24     20.00
   22.1905    144.35    141.86    -16.64     20.00
   22.2006    141.05    142.15    -20.23     20.00
   22.2108    142.71    142.42    -18.84     20.00
   22.2210    145.09    142.67    -16.71     20.00
   22.2311    144.49    142.90    -17.54     20.00
   22.2413    144.54    143.11    -17.70     20.00
   22.2515    142.73    143.30    -19.70     20.00
   22.2616    139.31    143.47    -23.29     20.00
   22.2718    142.74    143.61    -20.00     20.00
   22.2819    142.04    143.73    -20.82     20.00
   22.2921    141.54    143.82    -21.41     20.00
   22.3023    143.41    143.89    -19.61     20.00
   22.3124    144.94    143.93    -18.12     20.00
   22.3226    143.77    143.94    -19.30     20.00
   22.3328    143.42    143.92    -19.63     20.00
   22.3429    144.73    143.88    -18.28     20.00
   22.3531    141.42    143.81    -21.52     20.00
   22.3633    143.03    143.71    -19.81     20.00
   22.3734    141.93    143.58    -20.78     20.00
   22.3836    142.57    143.42    -19.98     20.00
   22.3938    142.91    143.23    -19.45     20.00
   22.4039    141.92    143.02    -20.23     20.00
   22.4141    139.26    142.77    -22.64     20.00
   22.4243    141.13    142.50    -20.50     20.00
   22.4344    141.26    142.20    -20.07     20.00
   22.4446    140.31    141.87    -20.69     20.00
   22.4547    139.30    141.51    -21.34     20.00
   22.4649    139.27    141.13    -20.99     20.00
   22.4751    139.84    140.71    -20.00     20.00
   22.4852    137.84    140.28    -21.57     20.00
   22.4954    139.15    139.82    -19.80     20.00
   22.5056    135.20    139.33    -23.26     20.00
   22.5157    137.93    138.83    -20.03     20.00
   22.5259    136.16    138.30    -21.27     20.00
   22.5361    134.79    137.74    -22.08     20.00
   22.5462    136.05    137.18    -20.26     20.00
   22.5564    134.74    136.58    -20.97     20.00
   22.5666    132.77    135.97    -22.33     20.00
   22.5767    133.76    135.35    -20.72     20.00
   22.5869    131.72    134.71    -22.12     20.00
   22.5970    131.68    134.05    -21.50     20.00
   22.6072    132.39    133.38    -20.12     20.00
   22.6174    131.12    132.70    -20.71     20.00
   22.6275    129.66    132.00    -21.47     20.00
   22.6377    129.87    131.30    -20.56     20.00
   22.6479    128.73    130.58    -20.98     20.00
   22.6580    127.57    129.86    -21.42     20.00
   22.6682    128.91    129.12    -19.34     20.00
   22.6784    126.48    128.38    -21.03     20.00
   22.6885    126.63    127.63    -20.13     20.00
   22.6987    127.13    126.88    -18.88     20.00
   22.7089    125.57    126.12    -19.68     20.00
   22.7190    123.52    125.36    -20.97     20.00
   22.7292    124.68    124.60    -19.05     20.00
   22.7394    125.13    123.83    -17.83     20.00
   22.7495    121.61    123.06    -20.58     20.00
   22.7597    120.16    122.29    -21.26     20.00
   22.7698    121.61    121.53    -19.05     20.00
   22.7800    119.87    120.76    -20.02     20.00
   22.7902    120.18    119.99    -18.94     20.00
   22.8003    120.39    119.23    -17.97     20.00
   22.8105    117.81    118.46    -19.78     20.00
   22.8207    118.48    117.70    -18.35     20.00
   22.8308    117.16    116.94    -18.91     20.00
   22.8410    116.96    116.19    -18.36     20.00
   22.8512    116.01    115.43    -18.55     20.00
   22.8613    115.16    114.69    -18.66     20.00
   22.8715    114.38    113.95    -18.70     20.00
   22.8817    112.96    113.21    -19.38     20.00
   22.8918    113.23    112.49    -18.39     20.00
   22.9020    112.73    111.76    -18.16     20.00
   22.9121    112.71    111.05    -17.47     20.00
   22.9223    112.27    110.34    -17.20     20.00
   22.9325    110.71    109.63    -18.05     20.00
   22.9426    110.20    108.94    -17.87     20.00
   22.9528    109.63    108.25    -17.75     20.00
   22.9630    108.93    107.56    -17.76     20.00
   22.9731    108.46    106.89    -17.56     20.00
   22.9833    107.14    106.22    -18.21     20.00
   22.9935    106.04    105.56    -18.65     20.00
   23.0036    106.63    104.92    -17.42     20.00
   23.0138    105.95    104.28    -17.46     20.00
   23.0240    105.35    103.64    -17.42     20.00
   23.0341    107.97    103.02    -14.18     20.00
   23.0443    103.71    102.40    -17.82     20.00
   23.0545    103.73    101.80    -17.20     20.00
   23.0646    104.87    101.20    -15.46     20.00
   23.0748    102.99    100.61    -16.75     20.00
   23.0849    100.84    100.04    -18.33     20.00
   23.0951    103.18     99.46    -15.41     20.00
   23.1053    102.57     98.90    -15.46     20.00
   23.1154    100.21     98.35    -17.27     20.00
   23.1256     97.40     97.80    -19.53     20.00
   23.1358     99.96     97.27    -16.44     20.00
   23.1459     97.61     96.74    -18.26     20.00
   23.1561     98.94     96.22    -16.41     20.00
   23.1663     99.01     95.71    -15.83     20.00
   23.1764     97.48     95.22    -16.87     20.00
   23.1866     95.69     94.72    -18.16     20.00
   23.1968     96.34     94.24    -17.03     20.00
   23.2069     94.60     93.77    -18.30     20.00
   23.2171     94.98     93.30    -17.45     20.00
   23.2272     94.51     92.85    -17.47     20.00
   23.2374     94.60     92.40    -16.93     20.00
   23.2476     95.14     91.95    -15.94     20.00
   23.2577     92.69     91.52    -17.96     20.00
   23.2679     92.15     91.10    -18.08     20.00
   23.2781     92.90     90.68    -16.91     20.00
   23.2882     93.00     90.27    -16.40     20.00
   23.2984     92.18     89.87    -16.82     20.00
   23.3086     92.02     89.47    -16.58     20.00
   23.3187     89.23     89.08    -18.98     20.00
   23.3289     90.47     88.70    -17.36     20.00
   23.3391     88.04     88.33    -19.42     20.00
   23.3492     88.55     87.96    -18.54     20.00
   23.3594     88.25     87.60    -18.48     20.00
   23.3695     89.73     87.25    -16.65     20.00
   23.3797     88.05     86.90    -17.98     20.00
   23.3899     87.45     86.56    -18.24     20.00
   23.4000     87.41     86.22    -17.94     20.00
   23.4102     87.09     85.89    -17.93     20.00
   23.4204     86.72     85.57    -17.98     20.00
   23.4305     85.88     85.25    -18.50     20.00
   23.4407     86.46     84.94    -17.61     20.00
   23.4509     86.10     84.63    -17.66     20.00
   23.4610     85.35     84.33    -18.11     20.00
   23.4712     83.58     84.04    -19.59     20.00
   23.4814     82.83     83.74    -20.04     20.00
   23.4915     85.52     83.46    -17.07     20.00
   23.5017     83.60     83.17    -18.70     20.00
   23.5119     82.43     82.90    -19.60     20.00
   23.5220     83.34     82.62    -18.41     20.00
   23.5322     82.41     82.35    -19.07     20.00
   23.5423     82.92     82.09    -18.30     20.00
   23.5525     80.82     81.83    -20.14     20.00
   23.5627     81.70     81.57    -19.00     20.00
   23.5728     81.45     81.32    -19.00     20.00
   23.5830     80.99     81.07    -19.21     20.00
   23.5932     80.99     80.82    -18.96     20.00
   23.6033     80.92     80.58    -18.79     20.00
   23.6135     79.26     80.34    -20.21     20.00
   23.6237     78.59     80.10    -20.64     20.00
   23.6338     79.09     79.87    -19.91     20.00
   23.6440     79.85     79.64    -18.92     20.00
   23.6542     78.83     79.41    -19.71     20.00
   23.6643     78.85     79.19    -19.47     20.00
   23.6745     77.91     78.97    -20.19     20.00
   23.6846     78.03     78.75    -19.85     20.00
   23.6948     77.57     78.53    -20.09     20.00
   23.7050     77.45     78.32    -20.00     20.00
   23.7151     76.50     78.11    -20.74     20.00
   23.7253     76.42     77.90    -20.61     20.00
   23.7355     77.80     77.69    -19.02     20.00
   23.7456     76.36     77.49    -20.26     20.00
   23.7558     74.50     77.28    -21.91     20.00
   23.7660     76.34     77.08    -19.87     20.00
   23.7761     75.76     76.88    -20.25     20.00
   23.7863     75.55     76.68    -20.26     20.00
   23.7965     75.65     76.49    -19.97     20.00
   23.8066     74.52     76.29    -20.90     20.00
   23.8168     74.53     76.10    -20.70     20.00
   23.8270     75.10     75.91    -19.94     20.00
   23.8371     73.70     75.72    -21.15     20.00
   23.8473     73.77     75.53    -20.89     20.00
   23.8574     72.72     75.35    -21.76     20.00
   23.8676     73.35     75.16    -20.94     20.00
   23.8778     72.47     74.98    -21.64     20.00
   23.8879     74.26     74.80    -19.67     20.00
   23.8981     71.86     74.61    -21.88     20.00
   23.9083     72.09     74.43    -21.47     20.00
   23.9184     72.16     74.26    -21.23     20.00
   23.9286     71.99     74.08    -21.22     20.00
   23.9388     71.75     73.90    -21.28     20.00
   23.9489     70.46     73.73    -22.40     20.00
   23.9591     72.18     73.55    -20.50     20.00
   23.9693     73.05     73.38    -19.46     20.00
   23.9794     71.23     73.21    -21.11     20.00
   23.9896     70.92     73.03    -21.24     20.00
   23.9997     70.74     72.87    -21.26     20.00
   24.0099     70.65     72.70    -21.18     20.00
   24.0201     71.20     72.53    -20.46     20.00
   24.0302     70.42     72.36    -21.07     20.00
   24.0404     68.58     72.19    -22.74     20.00
   24.0506     69.92     72.03    -21.24     20.00
   24.0607     69.88     71.86    -21.11     20.00
   24.0709     68.74     71.70    -22.09     20.00
   24.0811     69.80     71.53    -20.86     20.00
   24.0912     68.67     71.37    -21.83     20.00
   24.1014     68.58     71.21    -21.76     20.00
   24.1116     69.23     71.04    -20.94     20.00
   24.1217     68.85     70.89    -21.17     20.00
   24.1319     68.99     70.72    -20.86     20.00
   24.1421     67.16     70.56    -22.53     20.00
   24.1522     67.46     70.41    -22.08     20.00
   24.1624     69.02     70.25    -20.36     20.00
   24.1725     67.18     70.09    -22.04     20.00
   24.1827     66.35     69.93    -22.71     20.00
   24.1929     66.65     69.78    -22.26     20.00
   24.2030     68.59     69.62    -20.16     20.00
   24.2132     66.35     69.47    -22.25     20.00
   24.2234     65.70     69.31    -22.74     20.00
   24.2335     68.26     69.16    -20.03     20.00
   24.2437     66.40     69.01    -21.74     20.00
   24.2539     65.13     68.85    -22.85     20.00
   24.2640     65.59     68.70    -22.24     20.00
   24.2742     66.03     68.55    -21.65     20.00
   24.2844     65.65     68.40    -21.88     20.00
   24.2945     67.08     68.25    -20.30     20.00
   24.3047     65.69     68.10    -21.54     20.00
   24.3148     65.49     67.95    -21.59     20.00
   24.3250     65.74     67.80    -21.19     20.00
   24.3352     64.43     67.65    -22.35     20.00
   24.3453     65.17     67.51    -21.47     20.00
   24.3555     64.88     67.36    -21.61     20.00
   24.3657     65.35     67.21    -20.99     20.00
   24.3758     64.23     67.07    -21.97     20.00
   24.3860     64.96     66.92    -21.09     20.00
   24.3962     64.33     66.78    -21.58     20.00
   24.4063     64.16     66.63    -21.60     20.00
   24.4165     65.13     66.49    -20.49     20.00
   24.4267     63.85     66.34    -21.62     20.00
   24.4368     63.93     66.20    -21.40     20.00
   24.4470     63.35     66.06    -21.84     20.00
   24.4572     64.21     65.92    -20.84     20.00
   24.4673     63.80     65.77    -21.10     20.00
   24.4775     63.93     65.63    -20.83     20.00
   24.4876     63.05     65.49    -21.57     20.00
   24.4978     64.36     65.35    -20.12     20.00
   24.5080     64.18     65.21    -20.16     20.00
   24.5181     63.66     65.07    -20.54     20.00
   24.5283     63.82     64.94    -20.25     20.00
   24.5385     62.74     64.80    -21.19     20.00
   24.5486     62.30     64.66    -21.49     20.00
   24.5588     63.06     64.52    -20.59     20.00
   24.5690     62.47     64.38    -21.04     20.00
   24.5791     62.53     64.25    -20.85     20.00
   24.5893     62.55     64.11    -20.69     20.00
   24.5995     61.71     63.98    -21.40     20.00
   24.6096     61.98     63.84    -20.99     20.00
   24.6198     62.97     63.71    -19.87     20.00
   24.6299     62.34     63.57    -20.36     20.00
   24.6401     62.39     63.44    -20.18     20.00
   24.6503     62.20     63.31    -20.24     20.00
   24.6604     61.47     63.18    -20.84     20.00
   24.6706     61.87     63.04    -20.30     20.00
   24.6808     61.38     62.91    -20.66     20.00
   24.6909     61.87     62.78    -20.04     20.00
   24.7011     60.88     62.65    -20.90     20.00
   24.7113     60.87     62.52    -20.78     20.00
   24.7214     60.22     62.39    -21.30     20.00
   24.7316     62.20     62.26    -19.19     20.00
   24.7418     60.62     62.13    -20.64     20.00
   24.7519     60.94     62.00    -20.19     20.00
   24.7621     60.52     61.87    -20.48     20.00
   24.7723     60.99     61.74    -19.88     20.00
   24.7824     61.45     61.62    -19.30     20.00
   24.7926     60.35     61.49    -20.27     20.00
   24.8027     59.49     61.36    -21.00     20.00
   24.8129     59.49     61.24    -20.88     20.00
   24.8231     60.65     61.11    -19.59     20.00
   24.8332     60.16     60.99    -19.96     20.00
   24.8434     59.91     60.86    -20.08     20.00
   24.8536     60.10     60.74    -19.77     20.00
   24.8637     60.70     60.62    -19.05     20.00
   24.8739     59.74     60.49    -19.88     20.00
   24.8841     59.05     60.37    -20.45     20.00
   24.8942     59.54     60.25    -19.84     20.00
   24.9044     58.66     60.12    -20.59     20.00
   24.9146     59.72     60.00    -19.41     20.00
   24.9247     57.51     59.88    -21.50     20.00
   24.9349     59.52     59.76    -19.37     20.00
   24.9450     58.93     59.64    -19.84     20.00
   24.9552     59.98     59.52    -18.67     20.00
   24.9654     59.54     59.40    -18.99     20.00
   24.9755     58.87     59.28    -19.54     20.00
   24.9857     59.72     59.17    -18.58     20.00
   24.9959     59.01     59.05    -19.17     20.00
   25.0060     58.15     58.93    -19.91     20.00
   25.0162     58.68     58.81    -19.26     20.00
   25.0264     59.11     58.70    -18.72     20.00
   25.0365     58.50     58.58    -19.21     20.00
   25.0467     58.16     58.46    -19.43     20.00
   25.0569     59.06     58.35    -18.42     20.00
   25.0670     58.50     58.24    -18.87     20.00
   25.0772     58.70     58.12    -18.55     20.00
   25.0874     58.61     58.01    -18.53     20.00
   25.0975     58.59     57.89    -18.43     20.00
   25.1077     58.20     57.78    -18.71     20.00
   25.1178     56.96     57.67    -19.84     20.00
   25.1280     59.27     57.56    -17.42     20.00
   25.1382     57.20     57.44    -19.37     20.00
   25.1483     58.03     57.33    -18.43     20.00
   25.1585     58.12     57.22    -18.23     20.00
   25.1687     57.54     57.11    -18.70     20.00
   25.1788     58.46     57.00    -17.67     20.00
   25.1890     57.91     56.89    -18.11     20.00
   25.1992     57.02     56.79    -18.90     20.00
   25.2093     57.09     56.68    -18.72     20.00
   25.2195     57.62     56.57    -18.08     20.00
   25.2297     58.95     56.46    -16.64     20.00
   25.2398     57.24     56.36    -18.25     20.00
   25.2500     56.74     56.25    -18.64     20.00
   25.2601     57.15     56.15    -18.13     20.00
   25.2703     57.64     56.04    -17.53     20.00
   25.2805     58.10     55.93    -16.96     20.00
   25.2906     57.46     55.83    -17.50     20.00
   25.3008     57.77     55.73    -17.09     20.00
   25.3110     56.09     55.62    -18.66     20.00
   25.3211     55.96     55.52    -18.69     20.00
   25.3313     57.73     55.42    -16.82     20.00
   25.3415     56.77     55.32    -17.68     20.00
   25.3516     56.52     55.22    -17.83     20.00
   25.3618     55.44     55.11    -18.80     20.00
   25.3720     57.20     55.01    -16.94     20.00
   25.3821     56.24     54.91    -17.80     20.00
   25.3923     56.81     54.82    -17.14     20.00
   25.4024     57.34     54.72    -16.51     20.00
   25.4126     56.29     54.62    -17.46     20.00
   25.4228     56.34     54.52    -17.31     20.00
   25.4329     56.23     54.42    -17.32     20.00
   25.4431     55.47     54.33    -17.99     20.00
   25.4533     56.58     54.23    -16.78     20.00
   25.4634     56.55     54.14    -16.72     20.00
   25.4736     55.46     54.04    -17.71     20.00
   25.4838     56.97     53.95    -16.11     20.00
   25.4939     55.87     53.85    -17.11     20.00
   25.5041     57.18     53.76    -15.71     20.00
   25.5143     55.69     53.67    -17.11     20.00
   25.5244     55.46     53.57    -17.24     20.00
   25.5346     55.40     53.48    -17.21     20.00
   25.5448     55.66     53.39    -16.86     20.00
   25.5549     55.01     53.30    -17.42     20.00
   25.5651     55.21     53.21    -17.13     20.00
   25.5752     55.54     53.12    -16.71     20.00
   25.5854     56.34     53.03    -15.82     20.00
   25.5956     55.21     52.94    -16.86     20.00
   25.6057     54.22     52.86    -17.77     20.00
   25.6159     55.20     52.77    -16.70     20.00
   25.6261     55.23     52.68    -16.58     20.00
   25.6362     54.38     52.60    -17.35     20.00
   25.6464     53.99     52.51    -17.65     20.00
   25.6566     55.09     52.43    -16.47     20.00
   25.6667     54.08     52.34    -17.39     20.00
   25.6769     54.12     52.26    -17.27     20.00
   25.6871     55.51     52.18    -15.80     20.00
   25.6972     55.20     52.10    -16.03     20.00
   25.7074     54.57     52.01    -16.57     20.00
   25.7175     54.61     51.93    -16.45     20.00
   25.7277     54.18     51.85    -16.80     20.00
   25.7379     53.75     51.77    -17.15     20.00
   25.7480     55.13     51.70    -15.70     20.00
   25.7582     54.90     51.62    -15.85     20.00
   25.7684     54.38     51.54    -16.29     20.00
   25.7785     54.59     51.46    -16.00     20.00
   25.7887     53.32     51.39    -17.20     20.00
   25.7989     54.30     51.31    -16.14     20.00
   25.8090     54.30     51.24    -16.07     20.00
   25.8192     54.85     51.16    -15.44     20.00
   25.8294     52.49     51.09    -17.73     20.00
   25.8395     53.59     51.02    -16.56     20.00
   25.8497     53.40     50.94    -16.67     20.00
   25.8599     53.33     50.87    -16.67     20.00
   25.8700     54.58     50.80    -15.35     20.00
   25.8802     54.23     50.73    -15.63     20.00
   25.8903     54.01     50.66    -15.78     20.00
   25.9005     53.60     50.59    -16.12     20.00
   25.9107     52.70     50.53    -16.96     20.00
   25.9208     53.31     50.46    -16.28     20.00
   25.9310     53.57     50.39    -15.95     20.00
   25.9412     53.27     50.33    -16.19     20.00
   25.9513     53.34     50.26    -16.05     20.00
   25.9615     54.04     50.20    -15.29     20.00
   25.9717     53.37     50.14    -15.90     20.00
   25.9818     52.73     50.08    -16.48     20.00
   25.9920     53.54     50.01    -15.60     20.00
   26.0022     52.31     49.95    -16.77     20.00
   26.0123     52.30     49.89    -16.72     20.00
   26.0225     52.98     49.84    -15.99     20.00
   26.0326     53.09     49.78    -15.82     20.00
   26.0428     53.69     49.72    -15.16     20.00
   26.0530     52.48     49.66    -16.31     20.00
   26.0631     52.74     49.61    -16.00     20.00
   26.0733     51.93     49.55    -16.75     20.00
   26.0835     52.84     49.50    -15.79     20.00
   26.0936     52.15     49.45    -16.43     20.00
   26.1038     52.93     49.39    -15.59     20.00
   26.1140     52.13     49.34    -16.34     20.00
   26.1241     53.09     49.29    -15.33     20.00
   26.1343     52.68     49.24    -15.69     20.00
   26.1445     52.29     49.19    -16.03     20.00
   26.1546     52.37     49.15    -15.91     20.00
   26.1648     51.60     49.10    -16.63     20.00
   26.1750     51.15     49.05    -17.03     20.00
   26.1851     51.75     49.01    -16.39     20.00
   26.1953     51.46     48.97    -16.64     20.00
   26.2054     52.42     48.92    -15.63     20.00
   26.2156     51.95     48.88    -16.06     20.00
   26.2258     51.81     48.84    -16.16     20.00
   26.2359     51.27     48.80    -16.66     20.00
   26.2461     51.59     48.76    -16.30     20.00
   26.2563     51.10     48.72    -16.75     20.00
   26.2664     52.18     48.69    -15.64     20.00
   26.2766     50.98     48.65    -16.80     20.00
   26.2868     51.69     48.62    -16.06     20.00
   26.2969     50.18     48.58    -17.53     20.00
   26.3071     52.88     48.55    -14.80     20.00
   26.3173     51.59     48.52    -16.06     20.00
   26.3274     51.28     48.49    -16.34     20.00
   26.3376     51.15     48.46    -16.44     20.00
   26.3477     51.55     48.43    -16.01     20.00
   26.3579     50.69     48.40    -16.84     20.00
   26.3681     51.21     48.37    -16.29     20.00
   26.3782     50.75     48.35    -16.73     20.00
   26.3884     51.11     48.32    -16.34     20.00
   26.3986     51.48     48.30    -15.95     20.00
   26.4087     51.39     48.28    -16.02     20.00
   26.4189     50.54     48.26    -16.85     20.00
   26.4291     51.20     48.24    -16.17     20.00
   26.4392     50.73     48.22    -16.62     20.00
   26.4494     50.70     48.20    -16.63     20.00
   26.4596     50.38     48.18    -16.93     20.00
   26.4697     50.37     48.17    -16.93     20.00
   26.4799     49.84     48.15    -17.44     20.00
   26.4901     51.07     48.14    -16.20     20.00
   26.5002     50.98     48.13    -16.28     20.00
   26.5104     51.58     48.12    -15.67     20.00
   26.5205     50.60     48.11    -16.64     20.00
   26.5307     49.31     48.10    -17.92     20.00
   26.5409     50.19     48.09    -17.03     20.00
   26.5510     50.66     48.08    -16.55     20.00
   26.5612     50.24     48.08    -16.97     20.00
   26.5714     50.20     48.07    -17.00     20.00
   26.5815     50.61     48.07    -16.59     20.00
   26.5917     50.68     48.07    -16.52     20.00
   26.6019     50.59     48.07    -16.61     20.00
   26.6120     50.81     48.07    -16.39     20.00
   26.6222     49.91     48.07    -17.29     20.00
   26.6324     50.63     48.08    -16.58     20.00
   26.6425     50.02     48.08    -17.19     20.00
   26.6527     49.49     48.09    -17.73     20.00
   26.6628     50.97     48.09    -16.25     20.00
   26.6730     50.70     48.10    -16.53     20.00
   26.6832     50.05     48.11    -17.19     20.00
   26.6933     50.14     48.12    -17.11     20.00
   26.7035     49.52     48.14    -17.75     20.00
   26.7137     49.83     48.15    -17.45     20.00
   26.7238     49.95     48.16    -17.34     20.00
   26.7340     50.00     48.18    -17.31     20.00
   26.7442     49.83     48.20    -17.50     20.00
   26.7543     50.33     48.22    -17.02     20.00
   26.7645     49.32     48.24    -18.05     20.00
   26.7747     50.05     48.26    -17.34     20.00
   26.7848     49.95     48.28    -17.46     20.00
   26.7950     50.32     48.30    -17.11     20.00
   26.8052     49.76     48.33    -17.70     20.00
   26.8153     50.45     48.35    -17.03     20.00
   26.8255     49.85     48.38    -17.66     20.00
   26.8356     49.03     48.41    -18.51     20.00
   26.8458     50.23     48.44    -17.34     20.00
   26.8560     50.78     48.47    -16.82     20.00
   26.8661     48.97     48.50    -18.66     20.00
   26.8763     48.89     48.54    -18.78     20.00
   26.8865     48.52     48.57    -19.18     20.00
   26.8966     49.71     48.61    -18.03     20.00
   26.9068     48.37     48.65    -19.41     20.00
   26.9170     49.93     48.68    -17.88     20.00
   26.9271     49.70     48.72    -18.15     20.00
   26.9373     49.24     48.77    -18.66     20.00
   26.9475     49.13     48.81    -18.81     20.00
   26.9576     48.40     48.85    -19.58     20.00
   26.9678     49.55     48.90    -18.48     20.00
   26.9779     50.11     48.94    -17.96     20.00
   26.9881     49.71     48.99    -18.41     20.00
   26.9983     49.44     49.04    -18.73     20.00
   27.0084     49.89     49.09    -18.33     20.00
   27.0186     48.33     49.14    -19.94     20.00
   27.0288     48.62     49.19    -19.70     20.00
   27.0389     49.21     49.25    -19.17     20.00
   27.0491     48.91     49.30    -19.52     20.00
   27.0593     49.11     49.36    -19.38     20.00
   27.0694     49.54     49.42    -19.01     20.00
   27.0796     49.23     49.48    -19.38     20.00
   27.0898     49.63     49.54    -19.04     20.00
   27.0999     49.16     49.60    -19.57     20.00
   27.1101     49.53     49.66    -19.26     20.00
   27.1202     49.35     49.72    -19.50     20.00
   27.1304     49.12     49.79    -19.80     20.00
   27.1406     49.07     49.85    -19.91     20.00
   27.1507     49.70     49.92    -19.35     20.00
   27.1609     49.78     49.99    -19.34     20.00
   27.1711     47.91     50.06    -21.28     20.00
   27.1812     49.47     50.13    -19.79     20.00
   27.1914     48.71     50.20    -20.62     20.00
   27.2016     49.71     50.27    -19.69     20.00
   27.2117     49.87     50.34    -19.60     20.00
   27.2219     48.24     50.42    -21.31     20.00
   27.2321     47.76     50.49    -21.86     20.00
   27.2422     50.48     50.57    -19.22     20.00
   27.2524     48.37     50.65    -21.41     20.00
   27.2626     49.15     50.73    -20.71     20.00
   27.2727     49.05     50.80    -20.88     20.00
   27.2829     49.04     50.88    -20.97     20.00
   27.2930     48.47     50.97    -21.63     20.00
   27.3032     48.62     51.05    -21.56     20.00
   27.3134     50.27     51.13    -19.99     20.00
   27.3235     50.13     51.22    -20.22     20.00
   27.3337     49.37     51.30    -21.06     20.00
   27.3439     49.49     51.39    -21.03     20.00
   27.3540     49.32     51.47    -21.28     20.00
   27.3642     49.99     51.56    -20.70     20.00
   27.3744     49.18     51.65    -21.60     20.00
   27.3845     50.47     51.74    -20.40     20.00
   27.3947     49.57     51.83    -21.39     20.00
   27.4049     51.04     51.92    -20.01     20.00
   27.4150     48.80     52.01    -22.34     20.00
   27.4252     48.94     52.10    -22.29     20.00
   27.4353     50.59     52.19    -20.73     20.00
   27.4455     49.91     52.28    -21.50     20.00
   27.4557     50.62     52.38    -20.89     20.00
   27.4658     50.03     52.47    -21.57     20.00
   27.4760     49.49     52.57    -22.21     20.00
   27.4862     50.41     52.66    -21.38     20.00
   27.4963     49.48     52.76    -22.41     20.00
   27.5065     50.00     52.85    -21.98     20.00
   27.5167     49.95     52.95    -22.13     20.00
   27.5268     50.21     53.05    -21.97     20.00
   27.5370     50.58     53.14    -21.69     20.00
   27.5472     50.95     53.24    -21.42     20.00
   27.5573     51.19     53.34    -21.28     20.00
   27.5675     50.36     53.44    -22.21     20.00
   27.5777     49.99     53.54    -22.68     20.00
   27.5878     51.04     53.63    -21.72     20.00
   27.5980     50.46     53.73    -22.40     20.00
   27.6081     50.57     53.83    -22.39     20.00
   27.6183     50.70     53.93    -22.36     20.00
   27.6285     52.03     54.03    -21.13     20.00
   27.6386     50.68     54.13    -22.58     20.00
   27.6488     50.96     54.23    -22.40     20.00
   27.6590     51.14     54.33    -22.32     20.00
   27.6691     51.09     54.42    -22.46     20.00
   27.6793     51.44     54.52    -22.21     20.00
   27.6895     50.79     54.62    -22.96     20.00
   27.6996     51.23     54.72    -22.62     20.00
   27.7098     51.16     54.82    -22.79     20.00
   27.7200     51.90     54.92    -22.15     20.00
   27.7301     52.26     55.01    -21.88     20.00
   27.7403     51.24     55.11    -23.00     20.00
   27.7504     52.98     55.20    -21.35     20.00
   27.7606     53.62     55.30    -20.81     20.00
   27.7708     51.35     55.40    -23.18     20.00
   27.7809     53.46     55.49    -21.16     20.00
   27.7911     51.51     55.58    -23.20     20.00
   27.8013     53.56     55.68    -21.25     20.00
   27.8114     53.26     55.77    -21.64     20.00
   27.8216     52.93     55.86    -22.06     20.00
   27.8318     53.66     55.95    -21.42     20.00
   27.8419     53.48     56.04    -21.69     20.00
   27.8521     54.86     56.13    -20.40     20.00
   27.8623     54.34     56.22    -21.01     20.00
   27.8724     54.57     56.30    -20.86     20.00
   27.8826     55.29     56.39    -20.23     20.00
   27.8928     54.57     56.47    -21.03     20.00
   27.9029     55.70     56.56    -19.99     20.00
   27.9131     54.76     56.64    -21.01     20.00
   27.9232     55.52     56.72    -20.33     20.00
   27.9334     55.29     56.80    -20.64     20.00
   27.9436     55.48     56.88    -20.53     20.00
   27.9537     55.96     56.95    -20.12     20.00
   27.9639     55.93     57.03    -20.23     20.00
   27.9741     56.00     57.10    -20.23     20.00
   27.9842     56.12     57.17    -20.18     20.00
   27.9944     56.97     57.24    -19.40     20.00
   28.0046     57.16     57.31    -19.28     20.00
   28.0147     58.19     57.38    -18.32     20.00
   28.0249     56.29     57.44    -20.28     20.00
   28.0351     57.27     57.50    -19.36     20.00
   28.0452     57.20     57.56    -19.49     20.00
   28.0554     57.76     57.62    -18.99     20.00
   28.0655     58.46     57.68    -18.35     20.00
   28.0757     58.81     57.73    -18.05     20.00
   28.0859     59.70     57.78    -17.21     20.00
   28.0960     58.09     57.83    -18.87     20.00
   28.1062     57.83     57.88    -19.18     20.00
   28.1164     59.67     57.93    -17.39     20.00
   28.1265     58.27     57.97    -18.83     20.00
   28.1367     60.44     58.01    -16.70     20.00
   28.1469     59.54     58.05    -17.64     20.00
   28.1570     59.32     58.09    -17.90     20.00
   28.1672     59.76     58.12    -17.49     20.00
   28.1774     60.30     58.15    -16.98     20.00
   28.1875     60.85     58.18    -16.46     20.00
   28.1977     61.65     58.21    -15.69     20.00
   28.2079     60.95     58.23    -16.41     20.00
   28.2180     60.84     58.25    -16.54     20.00
   28.2282     60.48     58.27    -16.92     20.00
   28.2383     61.62     58.29    -15.80     20.00
   28.2485     62.46     58.30    -14.97     20.00
   28.2587     61.16     58.31    -16.28     20.00
   28.2688     61.20     58.32    -16.25     20.00
   28.2790     60.77     58.32    -16.68     20.00
   28.2892     60.71     58.32    -16.74     20.00
   28.2993     61.90     58.32    -15.55     20.00
   28.3095     62.08     58.32    -15.37     20.00
   28.3197     62.21     58.31    -15.23     20.00
   28.3298     61.49     58.30    -15.94     20.00
   28.3400     61.67     58.29    -15.75     20.00
   28.3502     61.13     58.28    -16.28     20.00
   28.3603     61.52     58.26    -15.87     20.00
   28.3705     61.16     58.24    -16.21     20.00
   28.3806     62.90     58.22    -14.45     20.00
   28.3908     60.76     58.19    -16.56     20.00
   28.4010     62.01     58.16    -15.28     20.00
   28.4111     60.88     58.13    -16.38     20.00
   28.4213     61.29     58.10    -15.94     20.00
   28.4315     61.34     58.06    -15.85     20.00
   28.4416     62.62     58.02    -14.53     20.00
   28.4518     61.04     57.98    -16.07     20.00
   28.4620     60.77     57.94    -16.30     20.00
   28.4721     62.52     57.89    -14.50     20.00
   28.4823     60.35     57.84    -16.62     20.00
   28.4925     60.68     57.79    -16.24     20.00
   28.5026     60.34     57.73    -16.52     20.00
   28.5128     60.51     57.67    -16.29     20.00
   28.5230     60.07     57.61    -16.67     20.00
   28.5331     61.28     57.55    -15.40     20.00
   28.5433     60.54     57.49    -16.08     20.00
   28.5534     59.80     57.42    -16.75     20.00
   28.5636     59.36     57.35    -17.12     20.00
   28.5738     59.86     57.28    -16.55     20.00
   28.5839     59.79     57.20    -16.54     20.00
   28.5941     59.08     57.13    -17.18     20.00
   28.6043     59.30     57.05    -16.88     20.00
   28.6144     58.82     56.97    -17.28     20.00
   28.6246     59.23     56.88    -16.78     20.00
   28.6348     59.52     56.80    -16.41     20.00
   28.6449     58.55     56.71    -17.29     20.00
   28.6551     58.75     56.62    -17.00     20.00
   28.6653     59.32     56.53    -16.34     20.00
   28.6754     58.57     56.44    -17.00     20.00
   28.6856     58.75     56.34    -16.72     20.00
   28.6957     58.35     56.25    -17.03     20.00
   28.7059     59.79     56.15    -15.49     20.00
   28.7161     57.20     56.05    -17.98     20.00
   28.7262     57.40     55.95    -17.68     20.00
   28.7364     57.32     55.84    -17.65     20.00
   28.7466     56.31     55.74    -18.56     20.00
   28.7567     57.02     55.63    -17.74     20.00
   28.7669     55.77     55.52    -18.88     20.00
   28.7771     56.50     55.41    -18.04     20.00
   28.7872     56.12     55.30    -18.31     20.00
   28.7974     55.38     55.19    -18.94     20.00
   28.8076     55.81     55.08    -18.40     20.00
   28.8177     56.48     54.96    -17.61     20.00
   28.8279     54.49     54.85    -19.49     20.00
   28.8381     55.16     54.73    -18.70     20.00
   28.8482     54.21     54.61    -19.53     20.00
   28.8584     53.77     54.49    -19.85     20.00
   28.8685     53.64     54.38    -19.87     20.00
   28.8787     54.70     54.25    -18.68     20.00
   28.8889     54.25     54.13    -19.01     20.00
   28.8990     53.48     54.01    -19.66     20.00
   28.9092     53.55     53.89    -19.47     20.00
   28.9194     53.27     53.76    -19.62     20.00
   28.9295     53.15     53.64    -19.62     20.00
   28.9397     53.52     53.51    -19.12     20.00
   28.9499     52.44     53.38    -20.07     20.00
   28.9600     51.96     53.26    -20.43     20.00
   28.9702     52.37     53.13    -19.89     20.00
   28.9804     51.34     53.00    -20.79     20.00
   28.9905     52.40     52.87    -19.60     20.00
   29.0007     52.35     52.74    -19.52     20.00
   29.0108     51.62     52.61    -20.12     20.00
   29.0210     51.50     52.48    -20.11     20.00
   29.0312     51.24     52.35    -20.24     20.00
   29.0413     50.45     52.22    -20.90     20.00
   29.0515     50.91     52.09    -20.31     20.00
   29.0617     50.83     51.96    -20.26     20.00
   29.0718     50.17     51.83    -20.79     20.00
   29.0820     50.10     51.70    -20.73     20.00
   29.0922     48.89     51.56    -21.80     20.00
   29.1023     50.16     51.43    -20.40     20.00
   29.1125     50.57     51.30    -19.86     20.00
   29.1227     49.01     51.17    -21.29     20.00
   29.1328     49.40     51.04    -20.77     20.00
   29.1430     49.73     50.90    -20.30     20.00
   29.1531     48.40     50.77    -21.50     20.00
   29.1633     47.33     50.64    -22.44     20.00
   29.1735     49.66     50.51    -19.98     20.00
   29.1836     49.17     50.38    -20.34     20.00
   29.1938     48.80     50.24    -20.57     20.00
   29.2040     48.65     50.11    -20.59     20.00
   29.2141     48.20     49.98    -20.91     20.00
   29.2243     48.32     49.85    -20.66     20.00
   29.2345     47.85     49.72    -21.00     20.00
   29.2446     47.55     49.59    -21.17     20.00
   29.2548     48.10     49.45    -20.48     20.00
   29.2650     48.46     49.32    -19.99     20.00
   29.2751     47.88     49.19    -20.44     20.00
   29.2853     47.19     49.06    -21.00     20.00
   29.2955     48.17     48.93    -19.89     20.00
   29.3056     46.77     48.80    -21.16     20.00
   29.3158     46.48     48.67    -21.32     20.00
   29.3259     45.91     48.55    -21.77     20.00
   29.3361     46.55     48.42    -21.00     20.00
   29.3463     46.56     48.29    -20.86     20.00
   29.3564     46.20     48.16    -21.09     20.00
   29.3666     46.60     48.03    -20.56     20.00
   29.3768     45.80     47.91    -21.24     20.00
   29.3869     46.57     47.78    -20.34     20.00
   29.3971     46.96     47.65    -19.82     20.00
   29.4073     46.66     47.53    -20.00     20.00
   29.4174     45.73     47.40    -20.80     20.00
   29.4276     47.16     47.28    -19.25     20.00
   29.4378     45.65     47.15    -20.63     20.00
   29.4479     44.73     47.03    -21.43     20.00
   29.4581     46.48     46.91    -19.56     20.00
   29.4682     44.65     46.78    -21.26     20.00
   29.4784     44.13     46.66    -21.66     20.00
   29.4886     44.62     46.54    -21.05     20.00
   29.4987     44.68     46.42    -20.87     20.00
   29.5089     45.43     46.30    -20.00     20.00
   29.5191     44.37     46.18    -20.94     20.00
   29.5292     44.84     46.06    -20.35     20.00
   29.5394     44.52     45.94    -20.55     20.00
   29.5496     44.69     45.82    -20.26     20.00
   29.5597     44.76     45.70    -20.07     20.00
   29.5699     44.36     45.59    -20.36     20.00
   29.5801     43.24     45.47    -21.36     20.00
   29.5902     43.71     45.35    -20.77     20.00
   29.6004     44.16     45.24    -20.21     20.00
   29.6106     44.22     45.12    -20.03     20.00
   29.6207     43.13     45.01    -21.01     20.00
   29.6309     44.80     44.89    -19.22     20.00
   29.6410     44.96     44.78    -18.95     20.00
   29.6512     44.30     44.67    -19.50     20.00
   29.6614     43.80     44.56    -19.89     20.00
   29.6715     43.56     44.45    -20.02     20.00
   29.6817     44.05     44.33    -19.41     20.00
   29.6919     44.39     44.22    -18.96     20.00
   29.7020     43.58     44.12    -19.67     20.00
   29.7122     42.86     44.01    -20.28     20.00
   29.7224     42.67     43.90    -20.36     20.00
   29.7325     44.68     43.79    -18.24     20.00
   29.7427     43.24     43.68    -19.57     20.00
   29.7529     42.94     43.58    -19.77     20.00
   29.7630     43.18     43.47    -19.42     20.00
   29.7732     43.14     43.37    -19.36     20.00
   29.7833     42.95     43.26    -19.44     20.00
   29.7935     43.44     43.16    -18.85     20.00
   29.8037     42.66     43.05    -19.52     20.00
   29.8138     43.90     42.95    -18.18     20.00
   29.8240     42.76     42.85    -19.22     20.00
   29.8342     42.73     42.75    -19.15     20.00
   29.8443     42.70     42.65    -19.08     20.00
   29.8545     43.02     42.55    -18.66     20.00
   29.8647     42.84     42.44    -18.73     20.00
   29.8748     43.65     42.35    -17.83     20.00
   29.8850     42.65     42.25    -18.73     20.00
   29.8952     41.59     42.15    -19.69     20.00
   29.9053     42.67     42.05    -18.51     20.00
   29.9155     41.81     41.96    -19.28     20.00
   29.9257     41.45     41.86    -19.54     20.00
   29.9358     42.60     41.76    -18.29     20.00
   29.9460     42.13     41.67    -18.67     20.00
   29.9561     42.13     41.57    -18.57     20.00
   29.9663     41.76     41.48    -18.85     20.00
   29.9765     41.45     41.39    -19.07     20.00
   29.9866     41.96     41.30    -18.47     20.00
   29.9968     41.60     41.20    -18.73     20.00
   30.0070     41.46     41.11    -18.78     20.00
   30.0171     40.73     41.02    -19.42     20.00
   30.0273     41.56     40.93    -18.50     20.00
   30.0375     41.75     40.84    -18.22     20.00
   30.0476     41.93     40.75    -17.95     20.00
   30.0578     41.19     40.66    -18.60     20.00
   30.0680     40.28     40.57    -19.42     20.00
   30.0781     40.74     40.49    -18.88     20.00
   30.0883     40.58     40.40    -18.95     20.00
   30.0984     40.91     40.31    -18.53     20.00
   30.1086     40.05     40.23    -19.31     20.00
   30.1188     40.80     40.14    -18.47     20.00
   30.1289     40.68     40.06    -18.51     20.00
   30.1391     40.99     39.97    -18.11     20.00
   30.1493     39.96     39.89    -19.06     20.00
   30.1594     39.68     39.81    -19.26     20.00
   30.1696     40.23     39.73    -18.63     20.00
   30.1798     39.91     39.64    -18.86     20.00
   30.1899     40.28     39.56    -18.41     20.00
   30.2001     40.13     39.48    -18.48     20.00
   30.2103     40.72     39.40    -17.81     20.00
   30.2204     39.89     39.32    -18.56     20.00
   30.2306     40.64     39.24    -17.73     20.00
   30.2408     39.86     39.16    -18.43     20.00
   30.2509     39.07     39.09    -19.15     20.00
   30.2611     38.71     39.01    -19.43     20.00
   30.2712     39.59     38.93    -18.47     20.00
   30.2814     40.65     38.86    -17.34     20.00
   30.2916     38.58     38.78    -19.33     20.00
   30.3017     38.12     38.70    -19.71     20.00
   30.3119     39.10     38.63    -18.66     20.00
   30.3221     38.93     38.55    -18.75     20.00
   30.3322     38.82     38.48    -18.79     20.00
   30.3424     38.73     38.41    -18.81     20.00
   30.3526     38.71     38.33    -18.75     20.00
   30.3627     38.54     38.26    -18.85     20.00
   30.3729     38.32     38.19    -19.00     20.00
   30.3831     38.34     38.12    -18.91     20.00
   30.3932     38.60     38.05    -18.58     20.00
   30.4034     38.50     37.98    -18.61     20.00
   30.4135     38.18     37.91    -18.86     20.00
   30.4237     37.33     37.84    -19.64     20.00
   30.4339     38.00     37.77    -18.90     20.00
   30.4440     37.71     37.70    -19.12     20.00
   30.4542     37.87     37.63    -18.89     20.00
   30.4644     37.66     37.57    -19.04     20.00
   30.4745     37.67     37.50    -18.96     20.00
   30.4847     37.21     37.43    -19.35     20.00
   30.4949     37.91     37.37    -18.59     20.00
   30.5050     36.40     37.30    -20.03     20.00
   30.5152     38.08     37.24    -18.29     20.00
   30.5254     37.68     37.17    -18.62     20.00
   30.5355     36.51     37.11    -19.73     20.00
   30.5457     36.80     37.05    -19.38     20.00
   30.5559     38.02     36.98    -18.09     20.00
   30.5660     37.25     36.92    -18.80     20.00
   30.5762     37.50     36.86    -18.49     20.00
   30.5863     37.04     36.80    -18.89     20.00
   30.5965     35.73     36.74    -20.14     20.00
   30.6067     36.79     36.68    -19.02     20.00
   30.6168     36.57     36.62    -19.18     20.00
   30.6270     36.29     36.56    -19.40     20.00
   30.6372     36.35     36.50    -19.28     20.00
   30.6473     37.05     36.44    -18.52     20.00
   30.6575     36.71     36.38    -18.80     20.00
   30.6677     36.14     36.32    -19.31     20.00
   30.6778     36.99     36.26    -18.40     20.00
   30.6880     36.75     36.21    -18.59     20.00
   30.6982     36.49     36.15    -18.79     20.00
   30.7083     36.56     36.10    -18.67     20.00
   30.7185     35.79     36.04    -19.38     20.00
   30.7286     35.85     35.98    -19.26     20.00
   30.7388     36.53     35.93    -18.53     20.00
   30.7490     35.72     35.88    -19.29     20.00
   30.7591     36.21     35.82    -18.74     20.00
   30.7693     35.89     35.77    -19.01     20.00
   30.7795     36.01     35.72    -18.84     20.00
   30.7896     35.76     35.66    -19.03     20.00
   30.7998     35.49     35.61    -19.25     20.00
   30.8100     36.27     35.56    -18.42     20.00
   30.8201     35.18     35.51    -19.46     20.00
   30.8303     35.35     35.46    -19.24     20.00
   30.8405     35.89     35.41    -18.65     20.00
   30.8506     34.87     35.36    -19.62     20.00
   30.8608     35.16     35.31    -19.28     20.00
   30.8710     36.27     35.26    -18.12     20.00
   30.8811     35.45     35.21    -18.89     20.00
   30.8913     35.77     35.16    -18.52     20.00
   30.9014     35.13     35.12    -19.12     20.00
   30.9116     34.90     35.07    -19.30     20.00
   30.9218     35.69     35.02    -18.46     20.00
   30.9319     34.60     34.98    -19.51     20.00
   30.9421     34.90     34.93    -19.16     20.00
   30.9523     34.87     34.88    -19.14     20.00
   30.9624     34.84     34.84    -19.13     20.00
   30.9726     34.26     34.80    -19.67     20.00
   30.9828     34.53     34.75    -19.35     20.00
   30.9929     34.71     34.71    -19.13     20.00
   31.0031     34.79     34.66    -19.00     20.00
   31.0133     35.65     34.62    -18.10     20.00
   31.0234     34.79     34.58    -18.92     20.00
   31.0336     34.27     34.54    -19.40     20.00
   31.0437     35.32     34.49    -18.30     20.00
   31.0539     34.53     34.45    -19.05     20.00
   31.0641     34.49     34.41    -19.05     20.00
   31.0742     35.40     34.37    -18.10     20.00
   31.0844     34.97     34.33    -18.49     20.00
   31.0946     34.76     34.29    -18.66     20.00
   31.1047     35.28     34.25    -18.10     20.00
   31.1149     33.79     34.21    -19.55     20.00
   31.1251     34.15     34.18    -19.16     20.00
   31.1352     33.72     34.14    -19.55     20.00
   31.1454     34.04     34.10    -19.19     20.00
   31.1556     34.38     34.06    -18.81     20.00
   31.1657     34.21     34.03    -18.95     20.00
   31.1759     33.87     33.99    -19.25     20.00
   31.1860     33.98     33.95    -19.10     20.00
   31.1962     35.12     33.92    -17.93     20.00
   31.2064     34.85     33.88    -18.16     20.00
   31.2165     34.68     33.85    -18.30     20.00
   31.2267     33.96     33.81    -18.98     20.00
   31.2369     34.04     33.78    -18.87     20.00
   31.2470     34.60     33.75    -18.28     20.00
   31.2572     35.04     33.71    -17.80     20.00
   31.2674     33.05     33.68    -19.76     20.00
   31.2775     34.08     33.65    -18.70     20.00
   31.2877     34.55     33.61    -18.19     20.00
   31.2979     34.10     33.58    -18.61     20.00
   31.3080     33.27     33.55    -19.41     20.00
   31.3182     33.92     33.52    -18.73     20.00
   31.3284     33.26     33.49    -19.36     20.00
   31.3385     33.96     33.46    -18.63     20.00
   31.3487     33.40     33.43    -19.16     20.00
   31.3588     33.57     33.40    -18.96     20.00
   31.3690     33.22     33.37    -19.28     20.00
   31.3792     33.29     33.34    -19.18     20.00
   31.3893     33.15     33.31    -19.29     20.00
   31.3995     33.18     33.29    -19.24     20.00
   31.4097     33.23     33.26    -19.16     20.00
   31.4198     33.23     33.23    -19.13     20.00
   31.4300     33.65     33.20    -18.68     20.00
   31.4402     32.95     33.18    -19.36     20.00
   31.4503     32.68     33.15    -19.60     20.00
   31.4605     33.38     33.13    -18.88     20.00
   31.4707     32.63     33.10    -19.60     20.00
   31.4808     33.62     33.07    -18.58     20.00
   31.4910     33.12     33.05    -19.06     20.00
   31.5011     34.10     33.03    -18.06     20.00
   31.5113     33.60     33.00    -18.53     20.00
   31.5215     33.09     32.98    -19.02     20.00
   31.5316     33.72     32.95    -18.36     20.00
   31.5418     33.35     32.93    -18.71     20.00
   31.5520     32.85     32.91    -19.19     20.00
   31.5621     32.95     32.89    -19.07     20.00
   31.5723     32.82     32.86    -19.17     20.00
   31.5825     32.28     32.84    -19.69     20.00
   31.5926     33.27     32.82    -18.68     20.00
   31.6028     33.05     32.80    -18.88     20.00
   31.6130     33.62     32.78    -18.29     20.00
   31.6231     32.78     32.76    -19.11     20.00
   31.6333     33.78     32.74    -18.09     20.00
   31.6435     33.49     32.72    -18.36     20.00
   31.6536     33.36     32.70    -18.47     20.00
   31.6638     33.20     32.68    -18.61     20.00
   31.6739     33.19     32.66    -18.60     20.00
   31.6841     32.68     32.64    -19.09     20.00
   31.6943     33.06     32.63    -18.70     20.00
   31.7044     32.82     32.61    -18.92     20.00
   31.7146     33.33     32.59    -18.39     20.00
   31.7248     32.32     32.57    -19.38     20.00
   31.7349     33.02     32.56    -18.67     20.00
   31.7451     32.88     32.54    -18.79     20.00
   31.7553     33.24     32.52    -18.41     20.00
   31.7654     32.61     32.51    -19.03     20.00
   31.7756     32.68     32.49    -18.94     20.00
   31.7858     32.49     32.48    -19.12     20.00
   31.7959     32.28     32.46    -19.31     20.00
   31.8061     32.34     32.45    -19.24     20.00
   31.8162     32.63     32.43    -18.93     20.00
   31.8264     33.05     32.42    -18.50     20.00
   31.8366     33.39     32.41    -18.15     20.00
   31.8467     32.99     32.39    -18.53     20.00
   31.8569     32.41     32.38    -19.10     20.00
   31.8671     32.56     32.37    -18.94     20.00
   31.8772     32.53     32.35    -18.95     20.00
   31.8874     32.76     32.34    -18.71     20.00
   31.8976     32.23     32.33    -19.23     20.00
   31.9077     33.11     32.32    -18.34     20.00
   31.9179     32.49     32.31    -18.95     20.00
   31.9281     33.23     32.29    -18.19     20.00
   31.9382     32.57     32.28    -18.84     20.00
   31.9484     32.29     32.27    -19.11     20.00
   31.9586     33.02     32.26    -18.37     20.00
   31.9687     32.28     32.25    -19.10     20.00
   31.9789     32.71     32.24    -18.66     20.00
   31.9890     32.69     32.23    -18.67     20.00
   31.9992     32.51     32.22    -18.84     20.00
   32.0094     32.40     32.21    -18.94     20.00
   32.0195     32.98     32.20    -18.35     20.00
   32.0297     32.27     32.20    -19.06     20.00
   32.0399     32.02     32.19    -19.30     20.00
   32.0500     32.61     32.18    -18.70     20.00
   32.0602     31.93     32.17    -19.37     20.00
   32.0704     32.01     32.16    -19.28     20.00
   32.0805     32.79     32.15    -18.49     20.00
   32.0907     32.10     32.15    -19.18     20.00
   32.1009     32.45     32.14    -18.82     20.00
   32.1110     32.31     32.13    -18.95     20.00
   32.1212     32.50     32.13    -18.76     20.00
   32.1313     33.00     32.12    -18.25     20.00
   32.1415     32.05     32.11    -19.19     20.00
   32.1517     32.01     32.11    -19.23     20.00
   32.1618     31.97     32.10    -19.26     20.00
   32.1720     32.16     32.09    -19.06     20.00
   32.1822     32.50     32.09    -18.72     20.00
   32.1923     32.43     32.08    -18.78     20.00
   32.2025     32.36     32.08    -18.85     20.00
   32.2127     32.08     32.07    -19.12     20.00
   32.2228     32.51     32.07    -18.69     20.00
   32.2330     32.60     32.06    -18.59     20.00
   32.2432     32.21     32.06    -18.98     20.00
   32.2533     31.71     32.05    -19.47     20.00
   32.2635     32.03     32.05    -19.15     20.00
   32.2737     32.40     32.04    -18.77     20.00
   32.2838     32.86     32.04    -18.31     20.00
   32.2940     32.61     32.03    -18.55     20.00
   32.3041     32.27     32.03    -18.89     20.00
   32.3143     31.07     32.02    -20.08     20.00
   32.3245     32.89     32.02    -18.26     20.00
   32.3346     32.57     32.02    -18.58     20.00
   32.3448     33.10     32.01    -18.04     20.00
   32.3550     32.73     32.01    -18.41     20.00
   32.3651     31.87     32.01    -19.27     20.00
   32.3753     31.76     32.00    -19.37     20.00
   32.3855     32.87     32.00    -18.26     20.00
   32.3956     32.09     32.00    -19.04     20.00
   32.4058     33.08     31.99    -18.04     20.00
   32.4160     32.34     31.99    -18.78     20.00
   32.4261     32.29     31.99    -18.83     20.00
   32.4363     33.32     31.98    -17.79     20.00
   32.4464     32.05     31.98    -19.06     20.00
   32.4566     31.39     31.98    -19.72     20.00
   32.4668     32.02     31.97    -19.08     20.00
   32.4769     31.51     31.97    -19.59     20.00
   32.4871     31.95     31.97    -19.15     20.00
   32.4973     31.41     31.97    -19.69     20.00
   32.5074     31.76     31.96    -19.33     20.00
   32.5176     31.76     31.96    -19.33     20.00
   32.5278     32.29     31.96    -18.80     20.00
   32.5379     32.18     31.95    -18.90     20.00
   32.5481     32.15     31.95    -18.93     20.00
   32.5583     31.72     31.95    -19.36     20.00
   32.5684     31.70     31.94    -19.37     20.00
   32.5786     31.51     31.94    -19.56     20.00
   32.5888     32.37     31.94    -18.70     20.00
   32.5989     31.81     31.94    -19.26     20.00
   32.6091     31.95     31.93    -19.11     20.00
   32.6192     31.93     31.93    -19.13     20.00
   32.6294     31.80     31.93    -19.26     20.00
   32.6396     31.95     31.92    -19.10     20.00
   32.6497     32.22     31.92    -18.83     20.00
   32.6599     31.82     31.91    -19.22     20.00
   32.6701     31.84     31.91    -19.20     20.00
   32.6802     32.44     31.91    -18.60     20.00
   32.6904     32.16     31.90    -18.87     20.00
   32.7006     31.54     31.90    -19.49     20.00
   32.7107     32.07     31.90    -18.96     20.00
   32.7209     31.03     31.89    -19.99     20.00
   32.7311     31.28     31.89    -19.74     20.00
   32.7412     31.79     31.88    -19.22     20.00
   32.7514     32.05     31.88    -18.96     20.00
   32.7615     31.10     31.87    -19.90     20.00
   32.7717     32.20     31.87    -18.80     20.00
   32.7819     31.54     31.86    -19.45     20.00
   32.7920     31.67     31.86    -19.32     20.00
   32.8022     32.12     31.85    -18.86     20.00
   32.8124     31.85     31.85    -19.13     20.00
   32.8225     31.93     31.84    -19.04     20.00
   32.8327     31.54     31.84    -19.43     20.00
   32.8429     31.66     31.83    -19.30     20.00
   32.8530     31.48     31.82    -19.47     20.00
   32.8632     31.64     31.82    -19.31     20.00
   32.8734     31.77     31.81    -19.17     20.00
   32.8835     32.84     31.80    -18.09     20.00
   32.8937     31.64     31.80    -19.29     20.00
   32.9039     32.10     31.79    -18.82     20.00
   32.9140     31.34     31.78    -19.57     20.00
   32.9242     32.24     31.77    -18.66     20.00
   32.9343     32.16     31.77    -18.74     20.00
   32.9445     31.34     31.76    -19.55     20.00
   32.9547     31.86     31.75    -19.02     20.00
   32.9648     32.08     31.74    -18.79     20.00
   32.9750     30.91     31.73    -19.95     20.00
   32.9852     32.76     31.72    -18.09     20.00
   32.9953     32.30     31.71    -18.54     20.00
   33.0055     32.48     31.70    -18.35     20.00
   33.0157     32.23     31.69    -18.59     20.00
   33.0258     31.65     31.68    -19.16     20.00
   33.0360     32.38     31.67    -18.42     20.00
   33.0462     31.94     31.66    -18.85     20.00
   33.0563     32.46     31.65    -18.32     20.00
   33.0665     32.98     31.64    -17.79     20.00
   33.0766     32.37     31.63    -18.39     20.00
   33.0868     31.91     31.61    -18.83     20.00
   33.0970     32.51     31.60    -18.22     20.00
   33.1071     33.12     31.59    -17.60     20.00
   33.1173     32.30     31.58    -18.41     20.00
   33.1275     32.48     31.56    -18.21     20.00
   33.1376     32.57     31.55    -18.11     20.00
   33.1478     31.43     31.54    -19.24     20.00
   33.1580     32.23     31.52    -18.42     20.00
   33.1681     32.20     31.51    -18.44     20.00
   33.1783     31.49     31.49    -19.13     20.00
   33.1885     31.76     31.48    -18.85     20.00
   33.1986     32.22     31.46    -18.37     20.00
   33.2088     32.14     31.45    -18.44     20.00
   33.2189     32.08     31.43    -18.48     20.00
   33.2291     31.98     31.41    -18.56     20.00
   33.2393     32.15     31.40    -18.38     20.00
   33.2494     31.76     31.38    -18.75     20.00
   33.2596     32.01     31.36    -18.48     20.00
   33.2698     32.44     31.34    -18.03     20.00
   33.2799     31.54     31.33    -18.92     20.00
   33.2901     32.85     31.31    -17.59     20.00
   33.3003     32.74     31.29    -17.68     20.00
   33.3104     33.19     31.27    -17.21     20.00
   33.3206     31.96     31.25    -18.42     20.00
   33.3308     32.22     31.23    -18.14     20.00
   33.3409     31.67     31.21    -18.67     20.00
   33.3511     32.62     31.19    -17.70     20.00
   33.3613     31.94     31.17    -18.36     20.00
   33.3714     31.66     31.15    -18.62     20.00
   33.3816     32.47     31.13    -17.79     20.00
   33.3917     32.34     31.11    -17.90     20.00
   33.4019     32.41     31.09    -17.81     20.00
   33.4121     32.05     31.07    -18.15     20.00
   33.4222     30.72     31.04    -19.45     20.00
   33.4324     31.88     31.02    -18.27     20.00
   33.4426     32.30     31.00    -17.83     20.00
   33.4527     31.71     30.97    -18.39     20.00
   33.4629     31.57     30.95    -18.51     20.00
   33.4731     31.44     30.93    -18.62     20.00
   33.4832     31.79     30.90    -18.24     20.00
   33.4934     31.27     30.88    -18.74     20.00
   33.5036     31.52     30.85    -18.46     20.00
   33.5137     31.42     30.83    -18.54     20.00
   33.5239     31.59     30.80    -18.34     20.00
   33.5340     32.10     30.78    -17.81     20.00
   33.5442     31.30     30.75    -18.58     20.00
   33.5544     31.15     30.73    -18.71     20.00
   33.5645     31.46     30.70    -18.37     20.00
   33.5747     31.99     30.68    -17.82     20.00
   33.5849     31.01     30.65    -18.77     20.00
   33.5950     31.42     30.62    -18.33     20.00
   33.6052     30.24     30.59    -19.48     20.00
   33.6154     30.57     30.57    -19.13     20.00
   33.6255     31.57     30.54    -18.10     20.00
   33.6357     30.84     30.51    -18.80     20.00
   33.6459     30.95     30.48    -18.66     20.00
   33.6560     31.20     30.46    -18.39     20.00
   33.6662     31.09     30.43    -18.47     20.00
   33.6764     31.09     30.40    -18.44     20.00
   33.6865     30.08     30.37    -19.42     20.00
   33.6967     30.89     30.34    -18.58     20.00
   33.7068     30.02     30.31    -19.42     20.00
   33.7170     30.33     30.28    -19.08     20.00
   33.7272     29.96     30.25    -19.42     20.00
   33.7373     30.01     30.22    -19.34     20.00
   33.7475     30.10     30.19    -19.22     20.00
   33.7577     30.82     30.16    -18.47     20.00
   33.7678     28.96     30.13    -20.30     20.00
   33.7780     29.86     30.10    -19.37     20.00
   33.7882     29.95     30.07    -19.25     20.00
   33.7983     29.18     30.04    -19.99     20.00
   33.8085     29.36     30.01    -19.78     20.00
   33.8187     28.91     29.98    -20.20     20.00
   33.8288     28.98     29.94    -20.09     20.00
   33.8390     29.26     29.91    -19.78     20.00
   33.8491     29.66     29.88    -19.35     20.00
   33.8593     27.80     29.85    -21.18     20.00
   33.8695     28.73     29.82    -20.22     20.00
   33.8796     28.43     29.79    -20.49     20.00
   33.8898     28.93     29.75    -19.95     20.00
   33.9000     28.34     29.72    -20.51     20.00
   33.9101     28.71     29.69    -20.11     20.00
   33.9203     28.59     29.66    -20.20     20.00
   33.9305     29.20     29.62    -19.55     20.00
   33.9406     28.41     29.59    -20.31     20.00
   33.9508     27.55     29.56    -21.14     20.00
   33.9610     28.48     29.53    -20.18     20.00
   33.9711     29.13     29.49    -19.49     20.00
   33.9813     28.03     29.46    -20.56     20.00
   33.9915     28.62     29.43    -19.94     20.00
   34.0016     28.18     29.39    -20.34     20.00
   34.0118     28.97     29.36    -19.52     20.00
   34.0219     28.02     29.33    -20.44     20.00
   34.0321     27.15     29.29    -21.27     20.00
   34.0423     27.84     29.26    -20.55     20.00
   34.0524     27.29     29.23    -21.07     20.00
   34.0626     27.91     29.19    -20.41     20.00
   34.0728     27.54     29.16    -20.75     20.00
   34.0829     27.65     29.13    -20.61     20.00
   34.0931     27.82     29.09    -20.40     20.00
   34.1033     27.73     29.06    -20.46     20.00
   34.1134     27.35     29.03    -20.81     20.00
   34.1236     27.66     28.99    -20.46     20.00
   34.1338     27.37     28.96    -20.72     20.00
   34.1439     27.16     28.92    -20.89     20.00
   34.1541     27.60     28.89    -20.42     20.00
   34.1642     27.62     28.86    -20.37     20.00
   34.1744     27.51     28.82    -20.44     20.00
   34.1846     27.37     28.79    -20.55     20.00
   34.1947     27.33     28.76    -20.56     20.00
   34.2049     27.03     28.72    -20.82     20.00
   34.2151     27.26     28.69    -20.56     20.00
   34.2252     27.07     28.65    -20.71     20.00
   34.2354     26.51     28.62    -21.24     20.00
   34.2456     26.78     28.59    -20.94     20.00
   34.2557     27.12     28.55    -20.56     20.00
   34.2659     26.89     28.52    -20.76     20.00
   34.2761     27.24     28.49    -20.38     20.00
   34.2862     26.78     28.45    -20.80     20.00
   34.2964     27.01     28.42    -20.54     20.00
   34.3066     26.82     28.38    -20.69     20.00
   34.3167     27.16     28.35    -20.32     20.00
   34.3269     26.04     28.32    -21.41     20.00
   34.3370     27.12     28.28    -20.29     20.00
   34.3472     26.99     28.25    -20.39     20.00
   34.3574     27.08     28.22    -20.27     20.00
   34.3675     27.51     28.18    -19.80     20.00
   34.3777     27.90     28.15    -19.38     20.00
   34.3879     26.98     28.12    -20.27     20.00
   34.3980     26.51     28.09    -20.71     20.00
   34.4082     27.03     28.05    -20.15     20.00
   34.4184     27.21     28.02    -19.94     20.00
   34.4285     25.80     27.99    -21.32     20.00
   34.4387     26.06     27.95    -21.02     20.00
   34.4489     26.24     27.92    -20.81     20.00
   34.4590     26.24     27.89    -20.78     20.00
   34.4692     26.55     27.86    -20.44     20.00
   34.4793     26.73     27.82    -20.22     20.00
   34.4895     27.40     27.79    -19.52     20.00
   34.4997     27.38     27.76    -19.51     20.00
   34.5098     27.46     27.73    -19.40     20.00
   34.5200     26.50     27.69    -20.32     20.00
   34.5302     26.26     27.66    -20.53     20.00
   34.5403     27.15     27.63    -19.61     20.00
   34.5505     25.92     27.60    -20.81     20.00
   34.5607     25.90     27.57    -20.80     20.00
   34.5708     26.93     27.53    -19.73     20.00
   34.5810     26.66     27.50    -19.97     20.00
   34.5912     27.12     27.47    -19.48     20.00
   34.6013     26.40     27.44    -20.17     20.00
   34.6115     26.35     27.41    -20.19     20.00
   34.6217     26.27     27.38    -20.24     20.00
   34.6318     26.03     27.35    -20.45     20.00
   34.6420     25.78     27.31    -20.66     20.00
   34.6521     26.96     27.28    -19.45     20.00
   34.6623     26.79     27.25    -19.59     20.00
   34.6725     26.34     27.22    -20.01     20.00
   34.6826     26.71     27.19    -19.61     20.00
   34.6928     26.49     27.16    -19.80     20.00
   34.7030     25.88     27.13    -20.38     20.00
   34.7131     25.91     27.10    -20.32     20.00
   34.7233     25.73     27.07    -20.47     20.00
   34.7335     25.74     27.04    -20.43     20.00
   34.7436     26.68     27.01    -19.46     20.00
   34.7538     25.23     26.98    -20.88     20.00
   34.7640     26.03     26.95    -20.05     20.00
   34.7741     25.96     26.92    -20.09     20.00
   34.7843     25.75     26.89    -20.27     20.00
   34.7944     25.34     26.86    -20.65     20.00
   34.8046     26.58     26.83    -19.38     20.00
   34.8148     26.02     26.80    -19.91     20.00
   34.8249     26.11     26.78    -19.80     20.00
   34.8351     25.48     26.75    -20.40     20.00
   34.8453     26.21     26.72    -19.64     20.00
   34.8554     26.33     26.69    -19.49     20.00
   34.8656     26.41     26.66    -19.38     20.00
   34.8758     25.41     26.63    -20.35     20.00
   34.8859     25.81     26.60    -19.92     20.00
   34.8961     25.98     26.58    -19.73     20.00
   34.9063     26.12     26.55    -19.56     20.00
   34.9164     25.67     26.52    -19.98     20.00
   34.9266     25.78     26.49    -19.84     20.00
   34.9367     26.04     26.47    -19.56     20.00
   34.9469     25.87     26.44    -19.70     20.00
   34.9571     26.04     26.41    -19.50     20.00
   34.9672     25.13     26.38    -20.38     20.00
   34.9774     26.09     26.36    -19.40     20.00
   34.9876     25.34     26.33    -20.12     20.00
   34.9977     25.30     26.30    -20.13     20.00
   35.0079     25.77     26.28    -19.64     20.00
   35.0181     25.29     26.25    -20.09     20.00
   35.0282     25.26     26.23    -20.10     20.00
   35.0384     25.71     26.20    -19.62     20.00
   35.0486     25.74     26.17    -19.56     20.00
   35.0587     25.52     26.15    -19.76     20.00
   35.0689     25.15     26.12    -20.10     20.00
   35.0791     25.17     26.10    -20.06     20.00
   35.0892     25.96     26.07    -19.24     20.00
   35.0994     25.31     26.05    -19.87     20.00
   35.1095     26.10     26.02    -19.05     20.00
   35.1197     25.89     26.00    -19.24     20.00
   35.1299     26.22     25.97    -18.88     20.00
   35.1400     25.40     25.95    -19.68     20.00
   35.1502     25.77     25.92    -19.28     20.00
   35.1604     25.99     25.90    -19.04     20.00
   35.1705     26.12     25.87    -18.88     20.00
   35.1807     25.55     25.85    -19.43     20.00
   35.1909     25.43     25.83    -19.53     20.00
   35.2010     25.64     25.80    -19.29     20.00
   35.2112     25.52     25.78    -19.39     20.00
   35.2214     25.34     25.76    -19.55     20.00
   35.2315     25.78     25.73    -19.08     20.00
   35.2417     25.26     25.71    -19.58     20.00
   35.2518     25.29     25.69    -19.53     20.00
   35.2620     25.77     25.66    -19.02     20.00
   35.2722     25.65     25.64    -19.12     20.00
   35.2823     25.11     25.62    -19.64     20.00
   35.2925     26.29     25.60    -18.44     20.00
   35.3027     25.40     25.57    -19.30     20.00
   35.3128     25.30     25.55    -19.38     20.00
   35.3230     25.25     25.53    -19.41     20.00
   35.3332     26.05     25.51    -18.59     20.00
   35.3433     25.09     25.49    -19.53     20.00
   35.3535     25.59     25.46    -19.00     20.00
   35.3637     24.63     25.44    -19.94     20.00
   35.3738     25.20     25.42    -19.35     20.00
   35.3840     25.60     25.40    -18.93     20.00
   35.3942     26.38     25.38    -18.13     20.00
   35.4043     24.38     25.36    -20.11     20.00
   35.4145     25.04     25.34    -19.43     20.00
   35.4246     25.66     25.32    -18.79     20.00
   35.4348     25.85     25.30    -18.58     20.00
   35.4450     25.29     25.28    -19.12     20.00
   35.4551     24.90     25.26    -19.49     20.00
   35.4653     25.24     25.24    -19.13     20.00
   35.4755     25.59     25.22    -18.76     20.00
   35.4856     24.57     25.20    -19.76     20.00
   35.4958     25.05     25.18    -19.26     20.00
   35.5060     25.24     25.16    -19.05     20.00
   35.5161     24.74     25.14    -19.53     20.00
   35.5263     24.95     25.12    -19.30     20.00
   35.5365     24.67     25.10    -19.56     20.00
   35.5466     24.98     25.08    -19.23     20.00
   35.5568     25.57     25.06    -18.62     20.00
   35.5669     24.65     25.04    -19.52     20.00
   35.5771     23.84     25.03    -20.32     20.00
   35.5873     24.60     25.01    -19.54     20.00
   35.5974     25.13     24.99    -18.99     20.00
   35.6076     25.12     24.97    -18.98     20.00
   35.6178     25.13     24.95    -18.95     20.00
   35.6279     25.29     24.93    -18.77     20.00
   35.6381     25.61     24.92    -18.44     20.00
   35.6483     24.72     24.90    -19.31     20.00
   35.6584     25.09     24.88    -18.92     20.00
   35.6686     24.93     24.86    -19.06     20.00
   35.6788     25.12     24.85    -18.86     20.00
   35.6889     24.80     24.83    -19.16     20.00
   35.6991     24.70     24.81    -19.24     20.00
   35.7093     25.49     24.80    -18.44     20.00
   35.7194     24.91     24.78    -19.00     20.00
   35.7296     25.16     24.76    -18.73     20.00
   35.7397     25.03     24.75    -18.85     20.00
   35.7499     25.97     24.73    -17.89     20.00
   35.7601     24.32     24.71    -19.52     20.00
   35.7702     24.65     24.70    -19.18     20.00
   35.7804     24.84     24.68    -18.97     20.00
   35.7906     24.56     24.67    -19.24     20.00
   35.8007     24.87     24.65    -18.91     20.00
   35.8109     25.61     24.64    -18.16     20.00
   35.8211     24.90     24.62    -18.85     20.00
   35.8312     24.06     24.61    -19.68     20.00
   35.8414     25.21     24.59    -18.51     20.00
   35.8516     24.06     24.57    -19.64     20.00
   35.8617     24.05     24.56    -19.64     20.00
   35.8719     24.74     24.54    -18.93     20.00
   35.8820     25.20     24.53    -18.46     20.00
   35.8922     24.38     24.52    -19.27     20.00
   35.9024     25.14     24.50    -18.49     20.00
   35.9125     24.53     24.49    -19.09     20.00
   35.9227     24.47     24.47    -19.13     20.00
   35.9329     25.09     24.46    -18.50     20.00
   35.9430     25.25     24.44    -18.32     20.00
   35.9532     25.85     24.43    -17.71     20.00
   35.9634     25.09     24.42    -18.46     20.00
   35.9735     24.74     24.40    -18.79     20.00
   35.9837     24.95     24.39    -18.57     20.00
   35.9939     25.32     24.38    -18.19     20.00
