! WinPLOTR profile fitting results:
!   data file: G311--5-40-0.01-1000ms.xy
!    wave (A):      1.54060     1.54060     1.00000
!
!   2theta(deg.) sig_2th        d(A)   Intensity     sig_int         FWHM    FWHM_sig         ETA     ETA_sig
!------------------------------------------------------------------------------------------------------------------
   18.551908    0.010756     4.77884      117.13        8.35     0.865769    0.029231    0.386741    0.073979
   20.171316    0.055953     4.39869       83.45       10.90     1.946569    0.225638    0.386741    0.073979
   22.348337    0.022115     3.97488       82.79        6.04     1.215068    0.059456    0.386741    0.073979
   28.397493    0.040241     3.14041       32.05        3.02     1.379053    0.097196    0.386741    0.073979
   29.881996    0.000000     2.98769       35.89        4.38     3.193037    0.369388    0.386741    0.073979
   33.275898    0.000000     2.69032       20.90        2.78     2.653821    0.000000    0.386741    0.073979
   17.376774    0.000000     5.09928       78.07        5.33     2.153821    0.000000    0.386741    0.073979
   18.553116    0.000000     4.77853      173.25        0.00     1.062639    0.000000    0.443770    0.000000
   20.351767    0.000000     4.36010       73.62        0.00     1.548182    0.000000    0.443770    0.000000
   22.333033    0.000000     3.97757       89.09        0.00     1.196691    0.000000    0.443770    0.000000
   28.531404    0.033342     3.12598       39.83        1.64     1.602923    0.082913    0.443770    0.000000
   29.934210    0.000000     2.98260        5.00        0.00     1.736068    0.000000    0.443770    0.000000
   33.275898    0.000000     2.69032        5.23        0.00     1.736068    0.000000    0.443770    0.000000
   17.000000    0.000000     5.21144       68.25        0.00     2.117364    0.000000    0.443770    0.000000
   20.091896    0.000000     4.41590      876.62        0.00    10.725627    0.000000    0.443770    0.000000
   18.499372    0.000000     4.79230      104.77        2.80     0.966023    0.023543    0.000100    0.000000
   20.300753    0.000000     4.37094       47.11        3.27     1.540660    0.103801    0.000100    0.000000
   22.337093    0.000000     3.97685       80.61        2.57     1.387497    0.042824    0.000100    0.000000
   28.367796    0.000000     3.14363      101.17        4.00     4.122865    0.125205    0.000100    0.000000
   30.038641    0.000000     2.97247        4.55        2.10     2.610693    0.000000    0.000100    0.000000
   33.197578    0.000000     2.69649       19.41        1.21     2.610693    0.000000    0.000100    0.000000
   17.500000    0.000000     5.06365       30.00        0.00     2.610693    0.000000    0.000100    0.000000
   19.282581    0.000000     4.59938      826.64        6.47     9.311770    0.074108    0.000100    0.000000
   18.548269    0.011340     4.77977       94.12        4.81     0.860496    0.028313   -0.011398    0.027185
   20.150673    0.053321     4.40315       74.01        8.13     1.957602    0.212228   -0.011398    0.027185
   22.355425    0.024270     3.97363       72.75        3.88     1.261290    0.055169   -0.011398    0.027185
   28.309645    0.035684     3.14996       35.98        2.30     1.611332    0.086894   -0.011398    0.027185
   29.934210    0.000000     2.98260       28.39        1.81     2.343096    0.000000   -0.011398    0.027185
   33.040936    0.000000     2.70891       18.89        1.24     2.343096    0.000000   -0.011398    0.027185
   17.500000    0.000000     5.06365       70.20        4.75     2.343096    0.000000   -0.011398    0.027185
   19.769802    0.034236     4.48711      823.84       15.00    10.451291    0.185806   -0.011398    0.027185
