Position (Â°),Intensity,Sigma,FWHM,FWHM Sigma
18.6584,146.55,4.19,0.8124,4.6749
20.5558,45.21,6.18,1.0475,4.6744
22.5182,107.68,4.13,1.1207,4.6749
28.5758,29.04,3.07,0.9448,4.6743
28.9252,74.13,5.08,4.1124,4.6637
33.1454,11.06,1.75,1.4775,4.6696
17.1157,18.50,6.31,1.5887,4.6629
19.6245,865.47,18.53,8.8856,4.6723
