Position (Â°),Intensity,Sigma,FWHM,FWHM Sigma
18.7996,132.64,2.84,0.8237,3.7029
20.6136,63.81,6.95,1.4114,3.7019
22.6404,101.29,3.60,1.1663,3.7028
28.6847,23.95,2.87,0.9175,3.7021
29.1739,61.33,4.91,3.5864,3.6907
33.1167,13.23,2.04,1.8132,3.6944
17.5000,38.77,7.63,2.0136,3.6973
19.9565,716.44,17.89,9.5635,3.6959
