Position (Â°),Intensity,Sigma,FWHM,FWHM Sigma
18.7956,164.80,3.60,0.8573,0.2058
20.6293,94.52,6.18,1.4707,0.2357
22.6328,130.31,4.62,1.2117,0.2060
28.6952,44.89,2.44,1.1800,0.2033
30.1921,20.38,3.02,2.6559,0.4523
33.4503,5.73,1.25,1.0293,0.3391
17.2222,96.29,6.41,3.1027,0.1040
20.3342,700.69,13.79,10.7831,0.4062
