Position (Â°),Intensity,Sigma,FWHM,FWHM Sigma
18.6603,147.06,4.24,0.8187,0.0176
20.4617,82.91,5.58,1.5370,0.0856
22.5065,109.07,3.37,1.1278,0.0313
28.5160,46.35,1.87,1.2219,0.0462
29.9864,25.02,1.60,2.0298,0.0000
33.4586,14.08,1.20,2.0298,0.0000
17.4011,55.16,3.82,2.0298,0.0000
19.9091,785.77,13.60,10.3605,0.1843
