Position (Â°),Intensity,Sigma,FWHM,FWHM Sigma
18.6524,175.22,4.21,0.7438,0.0164
20.6000,36.16,3.49,0.7241,0.0680
22.4850,121.07,5.29,1.0058,0.0362
28.5437,62.24,2.55,1.2449,0.0580
30.0877,36.03,2.66,2.9577,0.0000
33.3459,13.88,0.96,0.9357,0.0000
17.0969,101.99,5.30,2.7576,0.0000
20.2924,1012.98,14.58,8.2565,0.0000
