Position (Â°),Intensity,Sigma,FWHM,FWHM Sigma
18.6626,136.57,2.67,0.8310,0.0149
20.4898,59.62,5.07,1.3439,0.0801
22.4995,105.53,3.40,1.1820,0.0318
28.5686,24.89,2.65,0.9254,0.0699
29.0007,82.12,4.67,4.0237,0.2994
33.1609,22.06,2.34,2.0595,0.1788
17.4728,41.01,4.90,2.2139,0.0000
19.7470,826.05,11.88,9.3114,0.1289
