Position (Â°),Intensity,Sigma,FWHM,FWHM Sigma
18.6545,132.50,2.46,0.8152,0.0698
20.4586,98.49,3.80,1.6915,0.0334
22.5084,110.44,2.98,1.1846,0.0767
28.4722,34.02,1.44,1.1043,0.0796
29.8037,30.21,1.75,2.6915,0.0334
33.4325,15.61,1.16,2.6915,0.0334
17.5000,89.13,4.11,2.6915,0.0334
20.1180,698.55,8.49,11.2376,0.1408
