Position (Â°),Intensity,Sigma,FWHM,FWHM Sigma
18.6038,175.86,3.48,0.8343,0.0166
20.4241,111.84,6.66,1.6501,0.0752
22.4676,132.17,4.44,1.1450,0.0336
28.4983,49.37,2.25,1.1521,0.0513
30.1431,23.01,3.11,2.1221,0.2826
33.3281,35.58,3.54,3.2452,0.0000
17.1418,75.91,4.22,2.2452,0.0000
20.1702,921.88,16.57,12.0577,0.3518
