Position (Â°),Intensity,Sigma,FWHM,FWHM Sigma
18.6422,147.75,3.61,0.7462,0.0174
20.5908,44.10,5.53,0.9404,0.0873
22.5425,108.30,4.12,1.0227,0.0332
28.5266,55.46,1.77,1.2849,0.0485
30.0386,23.02,0.00,2.6458,0.0000
33.1454,8.98,1.36,2.6458,0.0000
17.5000,60.50,5.31,2.6458,0.0000
20.0136,882.31,15.63,8.7829,0.1333
