Position (Â°),Intensity,Sigma,FWHM,FWHM Sigma
18.7054,134.52,3.15,0.8307,0.0157
20.4994,91.57,4.67,1.6223,0.0792
22.5531,107.83,3.24,1.1826,0.0316
28.5680,39.46,1.78,1.2110,0.0473
30.0042,27.64,1.75,2.6055,0.0000
33.3876,16.07,1.30,2.6055,0.0000
17.5000,78.20,3.76,2.6055,0.0000
20.1044,705.02,11.58,10.9002,0.1824
