Position (Â°),Intensity,Sigma,FWHM,FWHM Sigma
18.6777,136.93,3.28,0.8030,0.0152
20.4326,91.55,4.92,1.6810,0.0876
22.5263,104.00,3.02,1.1197,0.0297
28.5840,41.21,2.00,1.2262,0.0481
30.2966,35.60,3.70,3.3972,0.3523
33.4085,15.75,2.22,2.0334,0.2225
17.5773,64.90,2.93,1.8797,0.0000
20.1880,800.50,11.46,10.8261,0.1605
