Position (Â°),Intensity,Sigma,FWHM,FWHM Sigma
18.5393,125.52,3.01,0.9732,0.0194
20.2531,68.00,5.22,1.7549,0.0999
22.3616,75.88,3.37,1.2160,0.0429
28.5000,40.66,1.35,1.4081,0.0000
30.3350,26.01,1.30,2.1081,0.0000
33.2237,18.61,1.03,2.1081,0.0000
17.0000,54.26,3.71,2.1081,0.0000
20.0706,800.46,10.80,10.0705,0.1215
