Position (Â°),Intensity,Sigma,FWHM,FWHM Sigma
18.5963,141.77,3.95,0.8845,0.0231
20.3564,54.74,4.47,1.2377,0.0000
22.3711,104.50,5.33,1.2514,0.0512
28.4538,40.31,2.73,1.4173,0.0900
29.9864,46.11,6.72,4.0797,0.5647
33.4064,11.24,3.54,1.7364,0.4160
17.4812,76.07,6.65,2.5650,0.0000
19.7525,1019.70,17.01,10.2180,0.2262
