Position (Â°),Intensity,Sigma,FWHM,FWHM Sigma
18.7108,113.62,5.81,0.8771,0.0284
20.3741,80.69,7.86,1.8042,0.1569
22.5332,94.21,4.45,1.3676,0.0509
28.5753,15.55,2.52,0.9627,0.1127
29.0367,67.06,4.46,3.8370,0.2144
33.1469,18.71,2.34,2.8439,0.0000
17.6967,71.13,5.43,2.3439,0.0000
19.6500,824.14,12.02,10.3892,0.2058
