Position (Â°),Intensity,Sigma,FWHM,FWHM Sigma
18.7033,148.30,6.18,0.9385,0.0282
20.4067,86.30,8.93,1.7496,0.1584
22.5206,101.39,4.81,1.2999,0.0525
28.5220,40.73,2.58,1.4315,0.0800
30.0647,24.17,1.96,2.1277,0.0000
33.3542,12.73,1.38,2.1277,0.0000
17.3048,66.21,5.14,2.1277,0.0000
19.8219,918.90,18.53,10.7071,0.2480
