Position (Â°),Intensity,Sigma,FWHM,FWHM Sigma
18.5798,109.76,3.74,0.9012,0.0247
20.3065,83.51,6.31,1.8081,0.1494
22.3968,89.70,4.49,1.3384,0.0530
28.4586,27.76,1.81,1.3835,0.0831
29.9415,33.87,3.30,3.6804,0.3375
33.4085,10.77,1.58,2.6251,0.0000
17.5000,118.58,5.87,3.3033,0.1200
20.0418,759.82,10.60,11.0039,0.1287
