Position (Â°),Intensity,Sigma,FWHM,FWHM Sigma
18.5782,126.97,5.52,0.9154,0.0285
20.2432,72.66,8.38,1.7831,0.1754
22.3976,81.22,4.04,1.2239,0.0520
28.3684,39.18,2.36,1.4711,0.0791
29.9206,26.23,1.76,1.9893,0.0000
33.4085,13.90,1.21,1.9893,0.0000
17.2142,55.22,4.44,1.9893,0.0000
19.7984,882.19,17.30,10.2357,0.2052
