Position (Â°),Intensity,Sigma,FWHM,FWHM Sigma
18.4981,132.16,3.47,0.8811,0.0215
20.2165,59.35,7.46,1.5650,0.1450
22.3428,98.07,4.16,1.2719,0.0468
28.3417,23.74,2.25,1.1726,0.0946
29.1771,77.87,3.00,3.6825,0.0000
33.2237,35.91,1.62,3.1825,0.0000
17.3382,55.42,6.51,2.6825,0.0000
19.5436,982.92,20.22,9.9572,0.1811
