Position (Â°),Intensity,Sigma,FWHM,FWHM Sigma
18.6650,154.78,4.78,0.9187,0.1530
20.3989,106.53,9.61,1.7451,0.2224
22.4645,132.14,7.22,1.4158,0.1581
28.4461,38.39,2.56,1.2850,0.1658
29.9342,20.34,3.18,1.9210,0.3282
33.2237,35.17,5.15,3.8876,0.0795
17.3768,149.01,8.89,3.3876,0.0795
20.1702,944.86,21.88,12.5399,0.4975
