Position (Â°),Intensity,Sigma,FWHM,FWHM Sigma
18.6683,119.76,5.37,0.9024,0.0272
20.3205,74.85,7.49,1.7724,0.1629
22.4529,88.58,4.11,1.2925,0.0503
28.4462,34.92,2.18,1.4048,0.0750
29.9342,26.73,1.75,2.1147,0.0000
33.3803,14.54,1.19,2.1147,0.0000
17.3707,58.40,4.26,2.1147,0.0000
19.9789,775.32,15.39,10.4077,0.2106
