Position (Â°),Intensity,Sigma,FWHM,FWHM Sigma
18.5390,145.00,6.32,0.8780,0.0292
20.2452,71.21,9.53,1.6003,0.1570
22.3396,115.98,5.78,1.3301,0.0528
28.3281,41.04,2.70,1.4479,0.0929
29.7254,35.36,3.09,2.7361,0.0000
33.3281,12.85,2.76,1.6710,0.3111
17.2634,59.12,6.39,2.2361,0.0000
19.5698,980.61,17.49,10.4964,0.2994
