Position (Â°),Intensity,Sigma,FWHM,FWHM Sigma
18.5357,95.01,4.97,0.8450,0.0259
20.1493,74.57,6.88,1.9223,0.1768
22.3400,79.68,3.56,1.2850,0.0465
28.2888,33.47,1.98,1.4976,0.0701
29.9081,33.40,1.64,2.3953,0.0000
33.3020,23.15,1.11,2.3953,0.0000
17.5341,68.79,4.25,2.3953,0.0000
19.9537,737.29,13.18,10.5676,0.1736
