! WinPLOTR profile fitting results:
!   data file: G101--5-40-0.01-1000ms.xy
!    wave (A):      1.54060     1.54060     1.00000
!
!   2theta(deg.) sig_2th        d(A)   Intensity     sig_int         FWHM    FWHM_sig         ETA     ETA_sig
!------------------------------------------------------------------------------------------------------------------
   18.669142    0.000000     4.74910      209.52        0.00     0.779517    0.000000    0.933004    0.010059
   20.551394    0.000000     4.31819      105.99        0.00     1.211902    0.000000    0.933004    0.010059
   22.493736    0.000000     3.94951      188.42        0.00     1.214378    0.000000    0.933004    0.010059
   28.576784    0.000000     3.12112       55.41        0.00     1.079117    0.000000    0.933004    0.010059
   29.855888    0.000000     2.99025       29.28        0.00     3.423889    0.000000    0.933004    0.010059
   33.380329    0.000000     2.68214       14.01        0.00     1.445951    0.000000    0.933004    0.010059
   16.983709    0.000000     5.21640      181.12        9.21     3.852285    0.183159    0.933004    0.010059
   20.118004    0.000000     4.41023      991.99       28.95    12.393860    0.265809    0.933004    0.010059
   18.658379    0.006591     4.75181      146.55        4.19     0.812413    4.674926    0.281440    0.018431
   20.555824    0.024848     4.31727       45.21        6.18     1.047513    4.674397    0.281440    0.018431
   22.518190    0.011362     3.94528      107.68        4.13     1.120715    4.674855    0.281440    0.018431
   28.575846    0.022640     3.12122       29.04        3.07     0.944801    4.674302    0.281440    0.018431
   28.925224    0.101270     3.08431       74.13        5.08     4.112441    4.663748    0.281440    0.018431
   33.145363    0.000000     2.70061       11.06        1.75     1.477454    4.669639    0.281440    0.018431
   17.115705    0.000000     5.17647       18.50        6.31     1.588680    4.662857    0.281440    0.018431
   19.624487    0.047221     4.52001      865.47       18.53     8.885612    4.672319    0.281440    0.018431
