 => TITLE: 
 => Data file name: C:\Users\stefano\Nextcloud2\inbox\plot\G101\G101--5-40-0.01-1000ms.xy
 => Instrm        :    1
 => Lambda(1&2)   :   1.54060  1.54060
 => Numb.of.points:      2926
 => Numb.of.peaks :         8
    2Theta     Yobs     Ycalc  Yobs-Ycal    Backg    Bragg     Posr  Intensity   FWHM    Eta
    6.4152     22.84     23.60    -28.16     14.02   18.6691     -2.47     209.52  0.7795  0.9330
    6.4253     23.12     23.61    -27.89     14.02   20.5514     -2.47     105.99  1.2119  0.9330
    6.4355     23.94     23.62    -27.09     14.02   22.4937     -2.47     188.42  1.2144  0.9330
    6.4457     23.43     23.64    -27.61     14.02   28.5768     -2.47      55.41  1.0791  0.9330
    6.4558     23.63     23.65    -27.43     14.02   29.8559     -2.47      29.28  3.4239  0.9330
    6.4660     23.24     23.66    -27.83     14.02   33.3803     -2.47      14.01  1.4460  0.9330
    6.4762     23.12     23.68    -27.96     14.02   16.9837     -2.47     181.12  3.8523  0.9330
    6.4863     23.75     23.69    -27.35     14.02   20.1180     -2.47     991.99 12.3939  0.9330
    6.4965     23.61     23.71    -27.50     14.02
    6.5066     23.00     23.72    -28.13     14.02
    6.5168     23.07     23.73    -28.07     14.03
    6.5270     22.85     23.75    -28.30     14.03
    6.5371     23.45     23.76    -27.72     14.03
    6.5473     22.73     23.78    -28.45     14.03
    6.5575     23.57     23.79    -27.63     14.03
    6.5676     23.54     23.80    -27.67     14.03
    6.5778     23.45     23.82    -27.78     14.03
    6.5880     22.46     23.83    -28.78     14.03
    6.5981     22.93     23.85    -28.32     14.03
    6.6083     23.59     23.86    -27.68     14.03
    6.6185     23.39     23.88    -27.89     14.03
    6.6286     23.71     23.89    -27.59     14.03
    6.6388     24.54     23.90    -26.77     14.03
    6.6489     23.58     23.92    -27.75     14.03
    6.6591     23.30     23.93    -28.04     14.04
    6.6693     23.07     23.95    -28.28     14.04
    6.6794     24.30     23.96    -27.07     14.04
    6.6896     22.90     23.98    -28.48     14.04
    6.6998     23.11     23.99    -28.29     14.04
    6.7099     24.27     24.01    -27.14     14.04
    6.7201     24.11     24.02    -27.32     14.04
    6.7303     23.55     24.04    -27.89     14.04
    6.7404     23.59     24.05    -27.87     14.04
    6.7506     23.47     24.06    -28.00     14.04
    6.7608     23.02     24.08    -28.47     14.04
    6.7709     24.05     24.09    -27.45     14.04
    6.7811     24.45     24.11    -27.06     14.04
    6.7913     24.01     24.12    -27.52     14.04
    6.8014     24.13     24.14    -27.41     14.04
    6.8116     23.67     24.15    -27.89     14.05
    6.8217     23.05     24.17    -28.52     14.05
    6.8319     23.90     24.18    -27.69     14.05
    6.8421     24.06     24.20    -27.54     14.05
    6.8522     23.90     24.21    -27.72     14.05
    6.8624     23.30     24.23    -28.33     14.05
    6.8726     23.11     24.24    -28.54     14.05
    6.8827     24.02     24.26    -27.64     14.05
    6.8929     22.99     24.27    -28.69     14.05
    6.9031     24.07     24.29    -27.62     14.05
    6.9132     23.30     24.30    -28.41     14.05
    6.9234     24.42     24.32    -27.30     14.05
    6.9336     23.65     24.33    -28.09     14.05
    6.9437     24.04     24.35    -27.72     14.05
    6.9539     23.95     24.36    -27.82     14.06
    6.9640     23.91     24.38    -27.88     14.06
    6.9742     23.98     24.40    -27.82     14.06
    6.9844     23.54     24.41    -28.28     14.06
    6.9945     23.52     24.43    -28.31     14.06
    7.0047     24.31     24.44    -27.54     14.06
    7.0149     24.12     24.46    -27.74     14.06
    7.0250     23.63     24.47    -28.25     14.06
    7.0352     24.01     24.49    -27.88     14.06
    7.0454     24.19     24.50    -27.72     14.06
    7.0555     24.30     24.52    -27.62     14.06
    7.0657     24.88     24.53    -27.06     14.06
    7.0759     23.52     24.55    -28.44     14.06
    7.0860     24.88     24.57    -27.09     14.06
    7.0962     24.56     24.58    -27.43     14.06
    7.1064     24.23     24.60    -27.77     14.07
    7.1165     23.33     24.61    -28.69     14.07
    7.1267     24.89     24.63    -27.15     14.07
    7.1368     24.06     24.64    -27.99     14.07
    7.1470     23.47     24.66    -28.60     14.07
    7.1572     25.02     24.68    -27.06     14.07
    7.1673     23.98     24.69    -28.12     14.07
    7.1775     23.80     24.71    -28.31     14.07
    7.1877     24.50     24.72    -27.63     14.07
    7.1978     24.60     24.74    -27.55     14.07
    7.2080     24.45     24.76    -27.71     14.07
    7.2182     23.87     24.77    -28.31     14.07
    7.2283     23.36     24.79    -28.83     14.07
    7.2385     24.42     24.81    -27.79     14.07
    7.2487     23.30     24.82    -28.93     14.08
    7.2588     23.78     24.84    -28.46     14.08
    7.2690     24.25     24.85    -28.01     14.08
    7.2791     24.23     24.87    -28.05     14.08
    7.2893     24.41     24.89    -27.88     14.08
    7.2995     24.95     24.90    -27.36     14.08
    7.3096     24.43     24.92    -27.90     14.08
    7.3198     24.89     24.94    -27.45     14.08
    7.3300     24.54     24.95    -27.82     14.08
    7.3401     24.64     24.97    -27.73     14.08
    7.3503     24.26     24.99    -28.13     14.08
    7.3605     24.22     25.00    -28.19     14.08
    7.3706     24.98     25.02    -27.44     14.08
    7.3808     25.05     25.03    -27.39     14.08
    7.3910     24.66     25.05    -27.80     14.09
    7.4011     24.09     25.07    -28.38     14.09
    7.4113     24.58     25.09    -27.91     14.09
    7.4215     23.82     25.10    -28.69     14.09
    7.4316     24.89     25.12    -27.63     14.09
    7.4418     24.64     25.14    -27.90     14.09
    7.4519     24.88     25.15    -27.68     14.09
    7.4621     25.17     25.17    -27.41     14.09
    7.4723     25.42     25.19    -27.17     14.09
    7.4824     24.60     25.20    -28.01     14.09
    7.4926     24.91     25.22    -27.72     14.09
    7.5028     25.59     25.24    -27.05     14.09
    7.5129     24.87     25.25    -27.79     14.09
    7.5231     25.09     25.27    -27.59     14.09
    7.5333     24.38     25.29    -28.31     14.09
    7.5434     24.65     25.31    -28.06     14.10
    7.5536     24.94     25.32    -27.79     14.10
    7.5638     24.55     25.34    -28.20     14.10
    7.5739     24.52     25.36    -28.24     14.10
    7.5841     24.45     25.38    -28.33     14.10
    7.5942     25.21     25.39    -27.59     14.10
    7.6044     24.86     25.41    -27.96     14.10
    7.6146     25.70     25.43    -27.13     14.10
    7.6247     25.24     25.44    -27.61     14.10
    7.6349     24.97     25.46    -27.90     14.10
    7.6451     25.68     25.48    -27.21     14.10
    7.6552     25.96     25.50    -26.94     14.10
    7.6654     25.46     25.52    -27.46     14.10
    7.6756     24.68     25.53    -28.26     14.10
    7.6857     24.87     25.55    -28.09     14.11
    7.6959     25.16     25.57    -27.81     14.11
    7.7061     25.55     25.59    -27.44     14.11
    7.7162     25.96     25.60    -27.05     14.11
    7.7264     25.60     25.62    -27.43     14.11
    7.7365     25.53     25.64    -27.52     14.11
    7.7467     25.63     25.66    -27.43     14.11
    7.7569     25.45     25.68    -27.63     14.11
    7.7670     25.26     25.69    -27.84     14.11
    7.7772     25.97     25.71    -27.15     14.11
    7.7874     24.65     25.73    -28.49     14.11
    7.7975     25.40     25.75    -27.75     14.11
    7.8077     25.51     25.77    -27.66     14.11
    7.8179     25.68     25.78    -27.51     14.11
    7.8280     25.46     25.80    -27.75     14.11
    7.8382     25.78     25.82    -27.45     14.12
    7.8484     25.26     25.84    -27.98     14.12
    7.8585     25.51     25.86    -27.75     14.12
    7.8687     24.70     25.88    -28.58     14.12
    7.8789     25.22     25.89    -28.08     14.12
    7.8890     26.11     25.91    -27.21     14.12
    7.8992     26.27     25.93    -27.07     14.12
    7.9093     25.37     25.95    -27.99     14.12
    7.9195     26.18     25.97    -27.19     14.12
    7.9297     26.12     25.99    -27.27     14.12
    7.9398     26.01     26.01    -27.40     14.12
    7.9500     26.21     26.02    -27.22     14.12
    7.9602     26.27     26.04    -27.18     14.12
    7.9703     26.59     26.06    -26.88     14.12
    7.9805     25.77     26.08    -27.72     14.13
    7.9907     26.28     26.10    -27.23     14.13
    8.0008     25.68     26.12    -27.84     14.13
    8.0110     25.95     26.14    -27.59     14.13
    8.0212     25.98     26.16    -27.58     14.13
    8.0313     24.71     26.17    -28.87     14.13
    8.0415     26.29     26.19    -27.31     14.13
    8.0516     26.90     26.21    -26.72     14.13
    8.0618     25.71     26.23    -27.93     14.13
    8.0720     25.50     26.25    -28.16     14.13
    8.0821     26.46     26.27    -27.22     14.13
    8.0923     26.04     26.29    -27.66     14.13
    8.1025     26.06     26.31    -27.66     14.13
    8.1126     26.81     26.33    -26.92     14.13
    8.1228     25.69     26.35    -28.06     14.14
    8.1330     26.73     26.37    -27.04     14.14
    8.1431     26.95     26.39    -26.84     14.14
    8.1533     26.37     26.41    -27.44     14.14
    8.1635     26.11     26.43    -27.72     14.14
    8.1736     26.90     26.45    -26.95     14.14
    8.1838     27.52     26.47    -26.35     14.14
    8.1940     26.54     26.49    -27.35     14.14
    8.2041     26.18     26.50    -27.73     14.14
    8.2143     27.04     26.52    -26.89     14.14
    8.2244     26.80     26.54    -27.15     14.14
    8.2346     26.38     26.56    -27.59     14.14
    8.2448     26.26     26.58    -27.73     14.14
    8.2549     26.48     26.60    -27.53     14.14
    8.2651     26.82     26.62    -27.21     14.14
    8.2753     26.52     26.64    -27.53     14.15
    8.2854     25.99     26.66    -28.08     14.15
    8.2956     27.39     26.68    -26.70     14.15
    8.3058     26.45     26.70    -27.66     14.15
    8.3159     26.35     26.72    -27.78     14.15
    8.3261     27.19     26.74    -26.96     14.15
    8.3363     26.73     26.77    -27.44     14.15
    8.3464     26.86     26.79    -27.33     14.15
    8.3566     27.13     26.81    -27.08     14.15
    8.3667     26.93     26.83    -27.30     14.15
    8.3769     27.46     26.85    -26.79     14.15
    8.3871     26.88     26.87    -27.39     14.15
    8.3972     27.39     26.89    -26.90     14.15
    8.4074     26.98     26.91    -27.33     14.15
    8.4176     27.69     26.93    -26.64     14.16
    8.4277     27.07     26.95    -27.29     14.16
    8.4379     27.24     26.97    -27.14     14.16
    8.4481     27.73     26.99    -26.67     14.16
    8.4582     27.66     27.01    -26.76     14.16
    8.4684     27.08     27.03    -27.36     14.16
    8.4786     26.91     27.05    -27.55     14.16
    8.4887     27.84     27.07    -26.64     14.16
    8.4989     26.73     27.10    -27.77     14.16
    8.5091     27.18     27.12    -27.34     14.16
    8.5192     27.71     27.14    -26.83     14.16
    8.5294     28.57     27.16    -26.00     14.16
    8.5395     27.00     27.18    -27.59     14.16
    8.5497     27.02     27.20    -27.59     14.16
    8.5599     27.63     27.22    -27.00     14.17
    8.5700     27.74     27.24    -26.91     14.17
    8.5802     27.68     27.27    -26.99     14.17
    8.5904     27.41     27.29    -27.28     14.17
    8.6005     27.29     27.31    -27.42     14.17
    8.6107     27.98     27.33    -26.76     14.17
    8.6209     28.55     27.35    -26.21     14.17
    8.6310     27.77     27.37    -27.01     14.17
    8.6412     27.54     27.39    -27.26     14.17
    8.6514     27.10     27.42    -27.72     14.17
    8.6615     28.14     27.44    -26.70     14.17
    8.6717     27.46     27.46    -27.41     14.17
    8.6818     27.77     27.48    -27.12     14.17
    8.6920     28.20     27.50    -26.71     14.17
    8.7022     27.51     27.53    -27.42     14.17
    8.7123     29.00     27.55    -25.95     14.18
    8.7225     27.95     27.57    -27.03     14.18
    8.7327     27.83     27.59    -27.17     14.18
    8.7428     27.51     27.61    -27.51     14.18
    8.7530     28.24     27.64    -26.80     14.18
    8.7632     26.57     27.66    -28.49     14.18
    8.7733     28.47     27.68    -26.62     14.18
    8.7835     27.76     27.70    -27.35     14.18
    8.7937     27.70     27.73    -27.43     14.18
    8.8038     28.83     27.75    -26.32     14.18
    8.8140     27.86     27.77    -27.32     14.18
    8.8242     27.71     27.79    -27.49     14.18
    8.8343     27.91     27.82    -27.31     14.18
    8.8445     29.06     27.84    -26.18     14.18
    8.8546     27.37     27.86    -27.90     14.19
    8.8648     28.30     27.88    -26.99     14.19
    8.8750     29.52     27.91    -25.79     14.19
    8.8851     27.99     27.93    -27.35     14.19
    8.8953     28.57     27.95    -26.79     14.19
    8.9055     29.10     27.98    -26.28     14.19
    8.9156     28.49     28.00    -26.91     14.19
    8.9258     28.40     28.02    -27.03     14.19
    8.9360     29.23     28.04    -26.22     14.19
    8.9461     28.48     28.07    -26.99     14.19
    8.9563     28.90     28.09    -26.60     14.19
    8.9665     28.18     28.11    -27.34     14.19
    8.9766     28.85     28.14    -26.69     14.19
    8.9868     28.66     28.16    -26.91     14.19
    8.9969     28.57     28.18    -27.02     14.19
    9.0071     28.90     28.21    -26.71     14.20
    9.0173     28.76     28.23    -26.88     14.20
    9.0274     29.46     28.25    -26.20     14.20
    9.0376     28.98     28.28    -26.70     14.20
    9.0478     29.13     28.30    -26.58     14.20
    9.0579     28.90     28.33    -26.83     14.20
    9.0681     28.44     28.35    -27.32     14.20
    9.0783     29.34     28.37    -26.44     14.20
    9.0884     28.78     28.40    -27.02     14.20
    9.0986     28.62     28.42    -27.21     14.20
    9.1088     28.82     28.44    -27.03     14.20
    9.1189     29.13     28.47    -26.74     14.20
    9.1291     28.87     28.49    -27.03     14.20
    9.1393     29.09     28.52    -26.83     14.20
    9.1494     29.95     28.54    -26.00     14.21
    9.1596     29.88     28.57    -26.09     14.21
    9.1697     28.58     28.59    -27.42     14.21
    9.1799     29.09     28.61    -26.93     14.21
    9.1901     29.12     28.64    -26.92     14.21
    9.2002     30.21     28.66    -25.86     14.21
    9.2104     29.50     28.69    -26.59     14.21
    9.2206     28.59     28.71    -27.53     14.21
    9.2307     29.23     28.74    -26.91     14.21
    9.2409     29.63     28.76    -26.54     14.21
    9.2511     29.82     28.79    -26.37     14.21
    9.2612     30.05     28.81    -26.17     14.21
    9.2714     28.47     28.84    -27.77     14.21
    9.2816     27.70     28.86    -28.57     14.21
    9.2917     29.61     28.89    -26.68     14.22
    9.3019     30.32     28.91    -26.00     14.22
    9.3120     29.49     28.94    -26.85     14.22
    9.3222     29.15     28.96    -27.22     14.22
    9.3324     30.22     28.99    -26.17     14.22
    9.3425     29.64     29.01    -26.78     14.22
    9.3527     29.60     29.04    -26.84     14.22
    9.3629     30.40     29.06    -26.07     14.22
    9.3730     29.26     29.09    -27.23     14.22
    9.3832     29.99     29.11    -26.53     14.22
    9.3934     30.20     29.14    -26.35     14.22
    9.4035     29.13     29.16    -27.44     14.22
    9.4137     30.21     29.19    -26.39     14.22
    9.4239     30.20     29.22    -26.42     14.22
    9.4340     30.59     29.24    -26.06     14.22
    9.4442     29.77     29.27    -26.90     14.23
    9.4544     30.28     29.29    -26.42     14.23
    9.4645     30.16     29.32    -26.57     14.23
    9.4747     30.15     29.35    -26.60     14.23
    9.4848     29.86     29.37    -26.92     14.23
    9.4950     29.80     29.40    -27.00     14.23
    9.5052     30.73     29.42    -26.10     14.23
    9.5153     29.65     29.45    -27.21     14.23
    9.5255     30.02     29.48    -26.86     14.23
    9.5357     30.42     29.50    -26.49     14.23
    9.5458     30.09     29.53    -26.85     14.23
    9.5560     29.77     29.56    -27.19     14.23
    9.5662     30.13     29.58    -26.86     14.23
    9.5763     31.51     29.61    -25.51     14.23
    9.5865     30.35     29.64    -26.69     14.24
    9.5967     30.26     29.66    -26.81     14.24
    9.6068     30.27     29.69    -26.83     14.24
    9.6170     30.17     29.72    -26.95     14.24
    9.6271     29.88     29.74    -27.27     14.24
    9.6373     29.93     29.77    -27.25     14.24
    9.6475     29.95     29.80    -27.25     14.24
    9.6576     31.03     29.83    -26.20     14.24
    9.6678     30.74     29.85    -26.52     14.24
    9.6780     30.94     29.88    -26.35     14.24
    9.6881     30.11     29.91    -27.20     14.24
    9.6983     31.06     29.93    -26.28     14.24
    9.7085     30.55     29.96    -26.82     14.24
    9.7186     30.57     29.99    -26.83     14.24
    9.7288     30.74     30.02    -26.68     14.24
    9.7390     30.19     30.05    -27.26     14.25
    9.7491     30.74     30.07    -26.74     14.25
    9.7593     31.48     30.10    -26.03     14.25
    9.7694     30.29     30.13    -27.24     14.25
    9.7796     30.95     30.16    -26.61     14.25
    9.7898     30.89     30.18    -26.70     14.25
    9.7999     30.16     30.21    -27.46     14.25
    9.8101     30.26     30.24    -27.39     14.25
    9.8203     30.74     30.27    -26.94     14.25
    9.8304     31.20     30.30    -26.50     14.25
    9.8406     31.32     30.33    -26.41     14.25
    9.8508     31.24     30.35    -26.52     14.25
    9.8609     30.42     30.38    -27.37     14.25
    9.8711     30.96     30.41    -26.86     14.25
    9.8813     30.95     30.44    -26.90     14.26
    9.8914     31.20     30.47    -26.67     14.26
    9.9016     31.70     30.50    -26.20     14.26
    9.9118     31.09     30.53    -26.84     14.26
    9.9219     30.95     30.55    -27.01     14.26
    9.9321     31.43     30.58    -26.56     14.26
    9.9422     31.17     30.61    -26.85     14.26
    9.9524     31.51     30.64    -26.54     14.26
    9.9626     30.85     30.67    -27.23     14.26
    9.9727     31.45     30.70    -26.66     14.26
    9.9829     31.78     30.73    -26.36     14.26
    9.9931     31.38     30.76    -26.78     14.26
   10.0032     31.68     30.79    -26.51     14.26
   10.0134     32.49     30.82    -25.73     14.26
   10.0236     30.42     30.85    -27.83     14.27
   10.0337     30.98     30.88    -27.30     14.27
   10.0439     31.41     30.91    -26.90     14.27
   10.0541     31.66     30.94    -26.68     14.27
   10.0642     31.49     30.97    -26.88     14.27
   10.0744     31.47     31.00    -26.93     14.27
   10.0845     31.96     31.03    -26.47     14.27
   10.0947     31.82     31.06    -26.64     14.27
   10.1049     31.30     31.09    -27.19     14.27
   10.1150     31.99     31.12    -26.53     14.27
   10.1252     31.34     31.15    -27.21     14.27
   10.1354     30.99     31.18    -27.59     14.27
   10.1455     31.63     31.21    -26.98     14.27
   10.1557     31.09     31.24    -27.55     14.27
   10.1659     31.82     31.27    -26.85     14.27
   10.1760     32.23     31.30    -26.48     14.28
   10.1862     32.21     31.33    -26.53     14.28
   10.1964     32.49     31.36    -26.28     14.28
   10.2065     32.24     31.39    -26.56     14.28
   10.2167     32.51     31.42    -26.32     14.28
   10.2269     32.43     31.45    -26.43     14.28
   10.2370     31.68     31.48    -27.21     14.28
   10.2472     31.71     31.52    -27.21     14.28
   10.2573     31.88     31.55    -27.07     14.28
   10.2675     32.24     31.58    -26.74     14.28
   10.2777     32.38     31.61    -26.64     14.28
   10.2878     32.57     31.64    -26.48     14.28
   10.2980     32.10     31.67    -26.98     14.28
   10.3082     32.70     31.70    -26.41     14.28
   10.3183     32.93     31.74    -26.21     14.29
   10.3285     32.41     31.77    -26.76     14.29
   10.3387     31.82     31.80    -27.39     14.29
   10.3488     32.67     31.83    -26.57     14.29
   10.3590     32.57     31.86    -26.70     14.29
   10.3692     31.43     31.90    -27.87     14.29
   10.3793     32.44     31.93    -26.89     14.29
   10.3895     31.79     31.96    -27.58     14.29
   10.3996     31.74     31.99    -27.66     14.29
   10.4098     33.21     32.03    -26.22     14.29
   10.4200     32.54     32.06    -26.92     14.29
   10.4301     32.32     32.09    -27.18     14.29
   10.4403     32.38     32.12    -27.15     14.29
   10.4505     32.27     32.16    -27.29     14.29
   10.4606     33.01     32.19    -26.58     14.30
   10.4708     32.60     32.22    -27.03     14.30
   10.4810     33.37     32.25    -26.29     14.30
   10.4911     32.42     32.29    -27.27     14.30
   10.5013     32.39     32.32    -27.34     14.30
   10.5115     33.15     32.35    -26.61     14.30
   10.5216     32.80     32.39    -26.99     14.30
   10.5318     32.38     32.42    -27.45     14.30
   10.5420     33.86     32.45    -26.00     14.30
   10.5521     33.37     32.49    -26.52     14.30
   10.5623     32.91     32.52    -27.02     14.30
   10.5724     32.73     32.56    -27.23     14.30
   10.5826     33.57     32.59    -26.43     14.30
   10.5928     32.88     32.62    -27.15     14.30
   10.6029     32.90     32.66    -27.16     14.30
   10.6131     33.81     32.69    -26.29     14.31
   10.6233     33.65     32.73    -26.48     14.31
   10.6334     33.40     32.76    -26.77     14.31
   10.6436     33.44     32.79    -26.76     14.31
   10.6538     33.28     32.83    -26.95     14.31
   10.6639     33.01     32.86    -27.26     14.31
   10.6741     32.63     32.90    -27.67     14.31
   10.6843     33.21     32.93    -27.13     14.31
   10.6944     32.66     32.97    -27.71     14.31
   10.7046     34.21     33.00    -26.20     14.31
   10.7147     33.55     33.04    -26.89     14.31
   10.7249     34.23     33.07    -26.25     14.31
   10.7351     33.85     33.11    -26.66     14.31
   10.7452     33.68     33.14    -26.87     14.31
   10.7554     34.35     33.18    -26.23     14.32
   10.7656     33.15     33.21    -27.47     14.32
   10.7757     33.78     33.25    -26.87     14.32
   10.7859     33.37     33.28    -27.32     14.32
   10.7961     32.74     33.32    -27.99     14.32
   10.8062     33.87     33.35    -26.89     14.32
   10.8164     33.57     33.39    -27.23     14.32
   10.8266     33.70     33.43    -27.13     14.32
   10.8367     34.12     33.46    -26.75     14.32
   10.8469     33.70     33.50    -27.20     14.32
   10.8571     33.92     33.54    -27.02     14.32
   10.8672     32.58     33.57    -28.40     14.32
   10.8774     34.39     33.61    -26.62     14.32
   10.8875     32.74     33.64    -28.31     14.32
   10.8977     33.29     33.68    -27.80     14.32
   10.9079     33.41     33.72    -27.71     14.33
   10.9180     33.77     33.75    -27.39     14.33
   10.9282     33.42     33.79    -27.78     14.33
   10.9384     34.66     33.83    -26.57     14.33
   10.9485     34.48     33.86    -26.79     14.33
   10.9587     33.53     33.90    -27.78     14.33
   10.9689     34.57     33.94    -26.78     14.33
   10.9790     34.26     33.98    -27.12     14.33
   10.9892     34.11     34.01    -27.31     14.33
   10.9994     34.05     34.05    -27.41     14.33
   11.0095     34.63     34.09    -26.87     14.33
   11.0197     33.95     34.13    -27.58     14.33
   11.0298     34.21     34.16    -27.36     14.33
   11.0400     33.93     34.20    -27.68     14.33
   11.0502     34.32     34.24    -27.33     14.34
   11.0603     33.82     34.28    -27.86     14.34
   11.0705     34.54     34.32    -27.18     14.34
   11.0807     34.55     34.36    -27.21     14.34
   11.0908     34.52     34.39    -27.28     14.34
   11.1010     34.80     34.43    -27.04     14.34
   11.1112     34.89     34.47    -26.99     14.34
   11.1213     34.50     34.51    -27.42     14.34
   11.1315     35.77     34.55    -26.18     14.34
   11.1417     35.63     34.59    -26.36     14.34
   11.1518     34.56     34.63    -27.47     14.34
   11.1620     34.41     34.67    -27.66     14.34
   11.1722     34.29     34.70    -27.82     14.34
   11.1823     34.78     34.74    -27.37     14.34
   11.1925     35.12     34.78    -27.07     14.35
   11.2026     35.30     34.82    -26.93     14.35
   11.2128     35.69     34.86    -26.58     14.35
   11.2230     35.52     34.90    -26.79     14.35
   11.2331     34.17     34.94    -28.18     14.35
   11.2433     35.23     34.98    -27.16     14.35
   11.2535     34.85     35.02    -27.58     14.35
   11.2636     35.01     35.06    -27.46     14.35
   11.2738     34.52     35.10    -27.99     14.35
   11.2840     35.37     35.14    -27.18     14.35
   11.2941     35.07     35.18    -27.52     14.35
   11.3043     34.65     35.22    -27.98     14.35
   11.3145     36.09     35.27    -26.58     14.35
   11.3246     34.89     35.31    -27.82     14.35
   11.3348     35.77     35.35    -26.98     14.35
   11.3449     36.12     35.39    -26.67     14.36
   11.3551     36.00     35.43    -26.84     14.36
   11.3653     36.66     35.47    -26.22     14.36
   11.3754     34.94     35.51    -27.98     14.36
   11.3856     35.82     35.55    -27.14     14.36
   11.3958     35.46     35.60    -27.54     14.36
   11.4059     35.39     35.64    -27.65     14.36
   11.4161     35.02     35.68    -28.06     14.36
   11.4263     36.09     35.72    -27.04     14.36
   11.4364     36.01     35.76    -27.16     14.36
   11.4466     35.85     35.80    -27.36     14.36
   11.4568     35.50     35.85    -27.75     14.36
   11.4669     36.67     35.89    -26.63     14.36
   11.4771     35.15     35.93    -28.19     14.36
   11.4873     35.12     35.97    -28.26     14.37
   11.4974     36.90     36.02    -26.52     14.37
   11.5076     35.62     36.06    -27.85     14.37
   11.5177     35.94     36.10    -27.57     14.37
   11.5279     35.95     36.15    -27.60     14.37
   11.5381     34.56     36.19    -29.04     14.37
   11.5482     36.48     36.23    -27.16     14.37
   11.5584     35.10     36.28    -28.58     14.37
   11.5686     35.42     36.32    -28.31     14.37
   11.5787     37.22     36.36    -26.55     14.37
   11.5889     36.09     36.41    -27.72     14.37
   11.5991     36.09     36.45    -27.77     14.37
   11.6092     36.62     36.50    -27.28     14.37
   11.6194     35.79     36.54    -28.16     14.37
   11.6296     37.11     36.58    -26.88     14.37
   11.6397     37.02     36.63    -27.01     14.38
   11.6499     36.87     36.67    -27.21     14.38
   11.6600     36.44     36.72    -27.68     14.38
   11.6702     37.09     36.76    -27.08     14.38
   11.6804     36.15     36.81    -28.06     14.38
   11.6905     36.83     36.85    -27.43     14.38
   11.7007     37.01     36.90    -27.29     14.38
   11.7109     37.37     36.94    -26.98     14.38
   11.7210     36.56     36.99    -27.83     14.38
   11.7312     36.15     37.03    -28.29     14.38
   11.7414     36.69     37.08    -27.80     14.38
   11.7515     37.27     37.13    -27.26     14.38
   11.7617     36.73     37.17    -27.85     14.38
   11.7719     36.75     37.22    -27.87     14.38
   11.7820     37.38     37.26    -27.29     14.39
   11.7922     37.49     37.31    -27.23     14.39
   11.8023     37.67     37.36    -27.09     14.39
   11.8125     36.98     37.40    -27.83     14.39
   11.8227     37.18     37.45    -27.68     14.39
   11.8328     37.87     37.50    -27.03     14.39
   11.8430     37.57     37.55    -27.38     14.39
   11.8532     36.82     37.59    -28.18     14.39
   11.8633     38.16     37.64    -26.89     14.39
   11.8735     38.10     37.69    -26.99     14.39
   11.8837     37.37     37.74    -27.77     14.39
   11.8938     36.43     37.78    -28.76     14.39
   11.9040     37.09     37.83    -28.15     14.39
   11.9142     37.13     37.88    -28.15     14.39
   11.9243     38.20     37.93    -27.13     14.40
   11.9345     37.02     37.98    -28.36     14.40
   11.9447     38.39     38.02    -27.04     14.40
   11.9548     38.61     38.07    -26.87     14.40
   11.9650     38.00     38.12    -27.53     14.40
   11.9751     38.30     38.17    -27.28     14.40
   11.9853     37.30     38.22    -28.32     14.40
   11.9955     37.79     38.27    -27.88     14.40
   12.0056     37.84     38.32    -27.88     14.40
   12.0158     38.07     38.37    -27.70     14.40
   12.0260     38.12     38.42    -27.70     14.40
   12.0361     38.43     38.47    -27.44     14.40
   12.0463     38.32     38.52    -27.60     14.40
   12.0565     38.22     38.57    -27.75     14.40
   12.0666     38.84     38.62    -27.18     14.40
   12.0768     37.73     38.67    -28.34     14.41
   12.0870     39.49     38.72    -26.63     14.41
   12.0971     38.87     38.77    -27.30     14.41
   12.1073     38.07     38.82    -28.16     14.41
   12.1174     38.37     38.87    -27.91     14.41
   12.1276     38.73     38.92    -27.60     14.41
   12.1378     39.03     38.97    -27.35     14.41
   12.1479     38.04     39.02    -28.39     14.41
   12.1581     38.87     39.08    -27.61     14.41
   12.1683     39.32     39.13    -27.21     14.41
   12.1784     39.24     39.18    -27.35     14.41
   12.1886     39.49     39.23    -27.15     14.41
   12.1988     40.30     39.28    -26.39     14.41
   12.2089     39.19     39.34    -27.55     14.41
   12.2191     37.87     39.39    -28.92     14.42
   12.2293     40.10     39.44    -26.75     14.42
   12.2394     39.58     39.49    -27.32     14.42
   12.2496     38.66     39.55    -28.29     14.42
   12.2598     39.76     39.60    -27.25     14.42
   12.2699     39.50     39.65    -27.56     14.42
   12.2801     40.61     39.71    -26.50     14.42
   12.2902     39.21     39.76    -27.96     14.42
   12.3004     39.51     39.82    -27.71     14.42
   12.3106     39.12     39.87    -28.16     14.42
   12.3207     39.54     39.92    -27.79     14.42
   12.3309     40.35     39.98    -27.03     14.42
   12.3411     39.74     40.03    -27.70     14.42
   12.3512     39.91     40.09    -27.58     14.42
   12.3614     39.95     40.14    -27.60     14.42
   12.3716     38.96     40.20    -28.64     14.43
   12.3817     40.08     40.25    -27.58     14.43
   12.3919     39.34     40.31    -28.37     14.43
   12.4021     39.80     40.36    -27.97     14.43
   12.4122     40.22     40.42    -27.61     14.43
   12.4224     39.66     40.48    -28.22     14.43
   12.4325     40.65     40.53    -27.29     14.43
   12.4427     40.34     40.59    -27.65     14.43
   12.4529     39.78     40.64    -28.27     14.43
   12.4630     40.59     40.70    -27.52     14.43
   12.4732     40.89     40.76    -27.27     14.43
   12.4834     40.74     40.82    -27.48     14.43
   12.4935     40.74     40.87    -27.54     14.43
   12.5037     40.76     40.93    -27.58     14.43
   12.5139     41.17     40.99    -27.22     14.44
   12.5240     40.45     41.05    -28.00     14.44
   12.5342     41.13     41.10    -27.38     14.44
   12.5444     41.84     41.16    -26.73     14.44
   12.5545     41.02     41.22    -27.61     14.44
   12.5647     41.15     41.28    -27.53     14.44
   12.5749     40.49     41.34    -28.25     14.44
   12.5850     41.49     41.40    -27.31     14.44
   12.5952     41.55     41.46    -27.31     14.44
   12.6053     41.07     41.51    -27.85     14.44
   12.6155     41.23     41.57    -27.75     14.44
   12.6257     41.54     41.63    -27.50     14.44
   12.6358     41.51     41.69    -27.59     14.44
   12.6460     41.46     41.75    -27.70     14.44
   12.6562     41.38     41.82    -27.84     14.45
   12.6663     41.87     41.88    -27.41     14.45
   12.6765     42.68     41.94    -26.66     14.45
   12.6867     42.55     42.00    -26.85     14.45
   12.6968     42.56     42.06    -26.90     14.45
   12.7070     42.23     42.12    -27.30     14.45
   12.7172     42.11     42.18    -27.48     14.45
   12.7273     41.99     42.24    -27.66     14.45
   12.7375     42.62     42.31    -27.09     14.45
   12.7476     42.40     42.37    -27.37     14.45
   12.7578     41.65     42.43    -28.19     14.45
   12.7680     42.84     42.49    -27.06     14.45
   12.7781     41.73     42.55    -28.23     14.45
   12.7883     42.77     42.62    -27.25     14.45
   12.7985     42.02     42.68    -28.07     14.45
   12.8086     42.37     42.74    -27.78     14.46
   12.8188     42.45     42.81    -27.76     14.46
   12.8290     42.78     42.87    -27.50     14.46
   12.8391     42.78     42.94    -27.56     14.46
   12.8493     43.91     43.00    -26.50     14.46
   12.8595     43.49     43.07    -26.98     14.46
   12.8696     41.89     43.13    -28.65     14.46
   12.8798     42.91     43.20    -27.69     14.46
   12.8900     42.15     43.26    -28.52     14.46
   12.9001     43.73     43.33    -27.00     14.46
   12.9103     43.03     43.39    -27.77     14.46
   12.9204     43.54     43.46    -27.32     14.46
   12.9306     43.00     43.52    -27.93     14.46
   12.9408     42.40     43.59    -28.60     14.46
   12.9509     43.53     43.66    -27.53     14.47
   12.9611     43.18     43.72    -27.95     14.47
   12.9713     43.61     43.79    -27.59     14.47
   12.9814     44.45     43.86    -26.81     14.47
   12.9916     43.97     43.93    -27.36     14.47
   13.0018     44.42     43.99    -26.98     14.47
   13.0119     44.01     44.06    -27.46     14.47
   13.0221     42.57     44.13    -28.97     14.47
   13.0323     43.30     44.20    -28.31     14.47
   13.0424     43.98     44.27    -27.69     14.47
   13.0526     44.22     44.34    -27.52     14.47
   13.0627     44.01     44.41    -27.80     14.47
   13.0729     45.02     44.48    -26.86     14.47
   13.0831     44.23     44.55    -27.72     14.47
   13.0932     44.93     44.62    -27.09     14.48
   13.1034     45.57     44.69    -26.52     14.48
   13.1136     44.27     44.76    -27.89     14.48
   13.1237     44.46     44.83    -27.77     14.48
   13.1339     45.36     44.90    -26.95     14.48
   13.1441     44.93     44.97    -27.45     14.48
   13.1542     44.59     45.04    -27.86     14.48
   13.1644     44.55     45.11    -27.97     14.48
   13.1746     45.74     45.19    -26.85     14.48
   13.1847     45.64     45.26    -27.02     14.48
   13.1949     44.95     45.33    -27.79     14.48
   13.2051     44.33     45.41    -28.48     14.48
   13.2152     46.23     45.48    -26.65     14.48
   13.2254     44.33     45.55    -28.63     14.48
   13.2355     46.55     45.62    -26.48     14.48
   13.2457     46.03     45.70    -27.08     14.49
   13.2559     45.64     45.77    -27.54     14.49
   13.2660     45.62     45.85    -27.63     14.49
   13.2762     45.95     45.92    -27.38     14.49
   13.2864     44.60     46.00    -28.80     14.49
   13.2965     45.73     46.07    -27.75     14.49
   13.3067     46.80     46.15    -26.76     14.49
   13.3169     45.67     46.23    -27.96     14.49
   13.3270     46.96     46.30    -26.75     14.49
   13.3372     44.66     46.38    -29.12     14.49
   13.3474     45.85     46.46    -28.01     14.49
   13.3575     46.52     46.53    -27.42     14.49
   13.3677     46.94     46.61    -27.08     14.49
   13.3778     46.57     46.69    -27.52     14.49
   13.3880     46.66     46.77    -27.51     14.50
   13.3982     47.47     46.84    -26.78     14.50
   13.4083     46.19     46.92    -28.14     14.50
   13.4185     45.35     47.00    -29.06     14.50
   13.4287     46.43     47.08    -28.06     14.50
   13.4388     47.25     47.16    -27.32     14.50
   13.4490     46.48     47.24    -28.17     14.50
   13.4592     47.12     47.32    -27.61     14.50
   13.4693     46.45     47.40    -28.36     14.50
   13.4795     46.72     47.48    -28.17     14.50
   13.4897     47.63     47.56    -27.34     14.50
   13.4998     47.69     47.64    -27.36     14.50
   13.5100     47.42     47.73    -27.71     14.50
   13.5201     48.02     47.81    -27.19     14.50
   13.5303     47.30     47.89    -28.00     14.50
   13.5405     48.18     47.97    -27.20     14.51
   13.5506     47.94     48.06    -27.52     14.51
   13.5608     47.90     48.14    -27.64     14.51
   13.5710     48.05     48.22    -27.58     14.51
   13.5811     48.62     48.31    -27.09     14.51
   13.5913     48.63     48.39    -27.17     14.51
   13.6015     49.68     48.48    -26.20     14.51
   13.6116     47.82     48.56    -28.15     14.51
   13.6218     48.31     48.65    -27.74     14.51
   13.6320     48.66     48.73    -27.48     14.51
   13.6421     48.17     48.82    -28.05     14.51
   13.6523     48.80     48.90    -27.51     14.51
   13.6625     48.59     48.99    -27.81     14.51
   13.6726     48.47     49.08    -28.01     14.51
   13.6828     48.62     49.16    -27.95     14.52
   13.6929     49.43     49.25    -27.23     14.52
   13.7031     49.92     49.34    -26.83     14.52
   13.7133     49.00     49.43    -27.83     14.52
   13.7234     48.80     49.52    -28.12     14.52
   13.7336     48.97     49.61    -28.04     14.52
   13.7438     49.03     49.70    -28.07     14.52
   13.7539     49.48     49.79    -27.71     14.52
   13.7641     49.15     49.88    -28.13     14.52
   13.7743     49.77     49.97    -27.60     14.52
   13.7844     49.48     50.06    -27.98     14.52
   13.7946     50.77     50.15    -26.78     14.52
   13.8048     50.70     50.24    -26.95     14.52
   13.8149     50.05     50.33    -27.69     14.52
   13.8251     50.87     50.42    -26.96     14.53
   13.8352     50.24     50.52    -27.68     14.53
   13.8454     50.46     50.61    -27.56     14.53
   13.8556     50.95     50.70    -27.16     14.53
   13.8657     50.18     50.80    -28.02     14.53
   13.8759     51.23     50.89    -27.07     14.53
   13.8861     51.07     50.99    -27.32     14.53
   13.8962     50.45     51.08    -28.04     14.53
   13.9064     50.06     51.18    -28.52     14.53
   13.9166     51.39     51.27    -27.29     14.53
   13.9267     51.01     51.37    -27.76     14.53
   13.9369     50.90     51.46    -27.97     14.53
   13.9471     50.67     51.56    -28.30     14.53
   13.9572     51.60     51.66    -27.46     14.53
   13.9674     51.74     51.76    -27.42     14.53
   13.9776     51.13     51.86    -28.13     14.54
   13.9877     52.96     51.95    -26.40     14.54
   13.9979     51.40     52.05    -28.06     14.54
   14.0080     51.60     52.15    -27.96     14.54
   14.0182     52.21     52.25    -27.45     14.54
   14.0284     52.38     52.35    -27.38     14.54
   14.0385     52.53     52.45    -27.33     14.54
   14.0487     52.68     52.55    -27.28     14.54
   14.0589     51.98     52.65    -28.08     14.54
   14.0690     53.12     52.76    -27.04     14.54
   14.0792     52.32     52.86    -27.94     14.54
   14.0894     52.43     52.96    -27.94     14.54
   14.0995     52.54     53.06    -27.93     14.54
   14.1097     53.72     53.17    -26.85     14.54
   14.1199     52.34     53.27    -28.34     14.55
   14.1300     53.90     53.38    -26.88     14.55
   14.1402     53.56     53.48    -27.33     14.55
   14.1503     52.92     53.58    -28.07     14.55
   14.1605     54.93     53.69    -26.17     14.55
   14.1707     52.99     53.80    -28.21     14.55
   14.1808     53.82     53.90    -27.49     14.55
   14.1910     53.79     54.01    -27.63     14.55
   14.2012     52.57     54.12    -28.95     14.55
   14.2113     54.46     54.22    -27.17     14.55
   14.2215     54.98     54.33    -26.76     14.55
   14.2317     54.74     54.44    -27.11     14.55
   14.2418     54.88     54.55    -27.08     14.55
   14.2520     54.30     54.66    -27.77     14.55
   14.2622     54.64     54.77    -27.54     14.55
   14.2723     54.40     54.88    -27.89     14.56
   14.2825     54.41     54.99    -27.99     14.56
   14.2927     55.59     55.10    -26.92     14.56
   14.3028     55.21     55.22    -27.41     14.56
   14.3130     54.84     55.33    -27.89     14.56
   14.3231     54.30     55.44    -28.55     14.56
   14.3333     56.36     55.55    -26.60     14.56
   14.3435     55.77     55.67    -27.30     14.56
   14.3536     54.98     55.78    -28.21     14.56
   14.3638     55.55     55.90    -27.75     14.56
   14.3740     57.29     56.01    -26.13     14.56
   14.3841     55.85     56.13    -27.68     14.56
   14.3943     56.54     56.24    -27.11     14.56
   14.4045     55.93     56.36    -27.84     14.56
   14.4146     56.87     56.48    -27.01     14.57
   14.4248     55.51     56.60    -28.49     14.57
   14.4350     56.66     56.71    -27.46     14.57
   14.4451     55.54     56.83    -28.70     14.57
   14.4553     56.81     56.95    -27.55     14.57
   14.4654     56.99     57.07    -27.49     14.57
   14.4756     57.04     57.19    -27.56     14.57
   14.4858     58.15     57.31    -26.57     14.57
   14.4959     57.71     57.43    -27.13     14.57
   14.5061     58.26     57.55    -26.70     14.57
   14.5163     57.30     57.68    -27.78     14.57
   14.5264     59.20     57.80    -26.00     14.57
   14.5366     57.58     57.92    -27.75     14.57
   14.5468     57.54     58.05    -27.91     14.57
   14.5569     57.34     58.17    -28.23     14.58
   14.5671     59.00     58.29    -26.70     14.58
   14.5773     58.67     58.42    -27.15     14.58
   14.5874     58.06     58.54    -27.89     14.58
   14.5976     57.32     58.67    -28.76     14.58
   14.6078     59.64     58.80    -26.56     14.58
   14.6179     58.76     58.92    -27.57     14.58
   14.6281     58.94     59.05    -27.52     14.58
   14.6382     59.51     59.18    -27.08     14.58
   14.6484     59.22     59.31    -27.49     14.58
   14.6586     60.16     59.44    -26.68     14.58
   14.6687     59.46     59.57    -27.51     14.58
   14.6789     58.96     59.70    -28.14     14.58
   14.6891     58.82     59.83    -28.42     14.58
   14.6992     60.31     59.96    -27.06     14.58
   14.7094     60.02     60.09    -27.48     14.59
   14.7196     60.15     60.22    -27.48     14.59
   14.7297     59.27     60.36    -28.49     14.59
   14.7399     59.47     60.49    -28.43     14.59
   14.7501     60.23     60.63    -27.80     14.59
   14.7602     59.32     60.76    -28.85     14.59
   14.7704     62.14     60.90    -26.16     14.59
   14.7805     60.65     61.03    -27.79     14.59
   14.7907     59.72     61.17    -28.85     14.59
   14.8009     62.77     61.30    -25.94     14.59
   14.8110     62.35     61.44    -26.50     14.59
   14.8212     60.77     61.58    -28.21     14.59
   14.8314     62.63     61.72    -26.49     14.59
   14.8415     63.28     61.86    -25.98     14.59
   14.8517     61.98     62.00    -27.42     14.60
   14.8619     61.17     62.14    -28.37     14.60
   14.8720     61.60     62.28    -28.08     14.60
   14.8822     62.77     62.42    -27.05     14.60
   14.8924     61.03     62.56    -28.94     14.60
   14.9025     62.79     62.70    -27.32     14.60
   14.9127     62.64     62.85    -27.61     14.60
   14.9229     62.23     62.99    -28.17     14.60
   14.9330     62.88     63.13    -27.66     14.60
   14.9432     61.91     63.28    -28.77     14.60
   14.9533     62.71     63.42    -28.12     14.60
   14.9635     64.29     63.57    -26.68     14.60
   14.9737     63.35     63.71    -27.77     14.60
   14.9838     64.07     63.86    -27.20     14.60
   14.9940     64.10     64.01    -27.31     14.60
   15.0042     63.18     64.16    -28.38     14.61
   15.0143     65.14     64.30    -26.57     14.61
   15.0245     63.87     64.45    -27.99     14.61
   15.0347     63.58     64.60    -28.43     14.61
   15.0448     63.61     64.75    -28.55     14.61
   15.0550     64.04     64.91    -28.27     14.61
   15.0652     63.26     65.06    -29.20     14.61
   15.0753     64.38     65.21    -28.23     14.61
   15.0855     64.59     65.36    -28.18     14.61
   15.0956     65.29     65.51    -27.63     14.61
   15.1058     63.60     65.67    -29.47     14.61
   15.1160     65.62     65.82    -27.61     14.61
   15.1261     64.97     65.98    -28.41     14.61
   15.1363     64.64     66.13    -28.90     14.61
   15.1465     66.28     66.29    -27.41     14.62
   15.1566     65.86     66.44    -27.99     14.62
   15.1668     66.39     66.60    -27.62     14.62
   15.1770     66.01     66.76    -28.16     14.62
   15.1871     65.20     66.92    -29.12     14.62
   15.1973     67.15     67.08    -27.33     14.62
   15.2075     65.48     67.24    -29.16     14.62
   15.2176     66.43     67.40    -28.37     14.62
   15.2278     67.57     67.56    -27.39     14.62
   15.2380     67.88     67.72    -27.24     14.62
   15.2481     65.96     67.88    -29.32     14.62
   15.2583     66.88     68.04    -28.57     14.62
   15.2684     66.16     68.20    -29.45     14.62
   15.2786     67.60     68.37    -28.17     14.62
   15.2888     68.43     68.53    -27.51     14.63
   15.2989     67.98     68.70    -28.12     14.63
   15.3091     68.42     68.86    -27.85     14.63
   15.3193     67.15     69.03    -29.28     14.63
   15.3294     68.30     69.19    -28.30     14.63
   15.3396     67.93     69.36    -28.84     14.63
   15.3498     66.99     69.53    -29.94     14.63
   15.3599     70.05     69.69    -27.05     14.63
   15.3701     69.19     69.86    -28.08     14.63
   15.3803     68.27     70.03    -29.17     14.63
   15.3904     68.48     70.20    -29.13     14.63
   15.4006     69.04     70.37    -28.74     14.63
   15.4107     69.56     70.54    -28.39     14.63
   15.4209     69.42     70.71    -28.70     14.63
   15.4311     70.32     70.88    -27.97     14.63
   15.4412     70.68     71.05    -27.78     14.64
   15.4514     69.34     71.23    -29.29     14.64
   15.4616     70.90     71.40    -27.91     14.64
   15.4717     70.16     71.57    -28.82     14.64
   15.4819     69.28     71.75    -29.87     14.64
   15.4921     70.51     71.92    -28.82     14.64
   15.5022     70.36     72.10    -29.14     14.64
   15.5124     71.08     72.27    -28.60     14.64
   15.5226     71.25     72.45    -28.61     14.64
   15.5327     71.30     72.62    -28.73     14.64
   15.5429     70.96     72.80    -29.25     14.64
   15.5530     71.32     72.98    -29.06     14.64
   15.5632     71.74     73.16    -28.82     14.64
   15.5734     71.19     73.34    -29.55     14.64
   15.5835     71.63     73.51    -29.29     14.65
   15.5937     71.46     73.69    -29.64     14.65
   15.6039     72.58     73.87    -28.70     14.65
   15.6140     72.59     74.05    -28.87     14.65
   15.6242     72.53     74.23    -29.11     14.65
   15.6344     73.68     74.42    -28.14     14.65
   15.6445     73.90     74.60    -28.10     14.65
   15.6547     73.66     74.78    -28.53     14.65
   15.6649     74.01     74.96    -28.36     14.65
   15.6750     72.27     75.14    -30.28     14.65
   15.6852     74.02     75.33    -28.71     14.65
   15.6954     73.78     75.51    -29.14     14.65
   15.7055     74.01     75.70    -29.09     14.65
   15.7157     73.74     75.88    -29.55     14.65
   15.7258     73.63     76.06    -29.84     14.65
   15.7360     75.82     76.25    -27.84     14.66
   15.7462     75.47     76.44    -28.37     14.66
   15.7563     73.13     76.62    -30.90     14.66
   15.7665     74.04     76.81    -30.17     14.66
   15.7767     75.05     76.99    -29.35     14.66
   15.7868     75.62     77.18    -28.97     14.66
   15.7970     75.24     77.37    -29.53     14.66
   15.8072     75.16     77.56    -29.80     14.66
   15.8173     76.22     77.74    -28.93     14.66
   15.8275     75.56     77.93    -29.78     14.66
   15.8377     76.55     78.12    -28.98     14.66
   15.8478     77.03     78.31    -28.68     14.66
   15.8580     75.92     78.50    -29.98     14.66
   15.8681     76.63     78.69    -29.46     14.66
   15.8783     77.32     78.88    -28.96     14.67
   15.8885     76.18     79.07    -30.29     14.67
   15.8986     78.04     79.25    -28.62     14.67
   15.9088     78.94     79.44    -27.91     14.67
   15.9190     78.82     79.64    -28.22     14.67
   15.9291     77.73     79.83    -29.50     14.67
   15.9393     76.91     80.02    -30.51     14.67
   15.9495     77.98     80.21    -29.63     14.67
   15.9596     78.05     80.40    -29.75     14.67
   15.9698     78.66     80.59    -29.34     14.67
   15.9800     79.06     80.78    -29.13     14.67
   15.9901     80.19     80.97    -28.19     14.67
   16.0003     78.96     81.16    -29.61     14.67
   16.0105     78.48     81.36    -30.28     14.67
   16.0206     78.95     81.55    -30.00     14.68
   16.0308     80.34     81.74    -28.81     14.68
   16.0409     80.05     81.93    -29.29     14.68
   16.0511     79.63     82.12    -29.90     14.68
   16.0613     80.21     82.32    -29.51     14.68
   16.0714     81.63     82.51    -28.28     14.68
   16.0816     80.23     82.70    -29.87     14.68
   16.0918     80.68     82.89    -29.62     14.68
   16.1019     81.63     83.08    -28.86     14.68
   16.1121     82.14     83.28    -28.54     14.68
   16.1223     81.23     83.47    -29.64     14.68
   16.1324     80.55     83.66    -30.51     14.68
   16.1426     81.02     83.85    -30.24     14.68
   16.1528     81.32     84.04    -30.13     14.68
   16.1629     81.54     84.23    -30.10     14.68
   16.1731     83.35     84.43    -28.48     14.69
   16.1832     81.65     84.62    -30.37     14.69
   16.1934     82.85     84.81    -29.37     14.69
   16.2036     82.35     85.00    -30.06     14.69
   16.2137     83.48     85.19    -29.12     14.69
   16.2239     83.46     85.38    -29.33     14.69
   16.2341     83.59     85.57    -29.39     14.69
   16.2442     83.74     85.76    -29.43     14.69
   16.2544     82.98     85.95    -30.38     14.69
   16.2646     85.31     86.15    -28.24     14.69
   16.2747     85.16     86.33    -28.58     14.69
   16.2849     85.05     86.52    -28.88     14.69
   16.2951     84.49     86.71    -29.63     14.69
   16.3052     84.26     86.90    -30.05     14.69
   16.3154     84.57     87.09    -29.93     14.70
   16.3256     83.93     87.28    -30.76     14.70
   16.3357     85.48     87.47    -29.40     14.70
   16.3459     84.97     87.66    -30.09     14.70
   16.3560     86.19     87.84    -29.06     14.70
   16.3662     85.55     88.03    -29.89     14.70
   16.3764     84.73     88.22    -30.90     14.70
   16.3865     86.42     88.41    -29.39     14.70
   16.3967     87.62     88.59    -28.38     14.70
   16.4069     87.06     88.78    -29.12     14.70
   16.4170     88.32     88.96    -28.05     14.70
   16.4272     88.51     89.15    -28.04     14.70
   16.4374     87.40     89.33    -29.34     14.70
   16.4475     88.60     89.52    -28.32     14.70
   16.4577     88.29     89.70    -28.82     14.71
   16.4679     87.99     89.89    -29.30     14.71
   16.4780     89.63     90.07    -27.84     14.71
   16.4882     88.37     90.25    -29.29     14.71
   16.4983     89.28     90.43    -28.56     14.71
   16.5085     89.65     90.61    -28.37     14.71
   16.5187     86.85     90.79    -31.35     14.71
   16.5288     89.55     90.97    -28.83     14.71
   16.5390     89.23     91.15    -29.33     14.71
   16.5492     89.55     91.33    -29.19     14.71
   16.5593     90.05     91.51    -28.87     14.71
   16.5695     90.06     91.69    -29.04     14.71
   16.5797     91.05     91.87    -28.23     14.71
   16.5898     89.96     92.05    -29.49     14.71
   16.6000     89.26     92.22    -30.37     14.71
   16.6102     90.27     92.40    -29.54     14.72
   16.6203     91.29     92.58    -28.69     14.72
   16.6305     92.20     92.75    -27.96     14.72
   16.6407     91.85     92.93    -28.48     14.72
   16.6508     91.37     93.10    -29.13     14.72
   16.6610     92.27     93.27    -28.41     14.72
   16.6711     92.16     93.44    -28.69     14.72
   16.6813     91.51     93.62    -29.51     14.72
   16.6915     93.31     93.79    -27.89     14.72
   16.7016     92.93     93.96    -28.44     14.72
   16.7118     92.59     94.13    -28.95     14.72
   16.7220     94.12     94.30    -27.59     14.72
   16.7321     93.14     94.47    -28.74     14.72
   16.7423     93.09     94.64    -28.96     14.72
   16.7525     94.40     94.81    -27.82     14.73
   16.7626     93.55     94.98    -28.83     14.73
   16.7728     93.59     95.15    -28.96     14.73
   16.7830     95.30     95.31    -27.42     14.73
   16.7931     96.79     95.48    -26.09     14.73
   16.8033     96.09     95.65    -26.96     14.73
   16.8134     95.43     95.81    -27.79     14.73
   16.8236     95.96     95.98    -27.42     14.73
   16.8338     94.55     96.14    -29.00     14.73
   16.8439     97.60     96.30    -26.11     14.73
   16.8541     95.99     96.47    -27.88     14.73
   16.8643     97.37     96.63    -26.67     14.73
   16.8744     97.90     96.80    -26.30     14.73
   16.8846     96.16     96.96    -28.20     14.73
   16.8948     97.74     97.12    -26.79     14.73
   16.9049     97.87     97.28    -26.82     14.74
   16.9151     97.79     97.45    -27.06     14.74
   16.9253     97.93     97.61    -27.08     14.74
   16.9354     96.09     97.77    -29.08     14.74
   16.9456     97.71     97.93    -27.63     14.74
   16.9558     98.09     98.09    -27.41     14.74
   16.9659     97.57     98.25    -28.09     14.74
   16.9761     99.09     98.41    -26.73     14.74
   16.9862     97.95     98.57    -28.03     14.74
   16.9964     99.55     98.73    -26.59     14.74
   17.0066     99.63     98.89    -26.67     14.74
   17.0167     99.91     99.05    -26.55     14.74
   17.0269     99.69     99.22    -26.93     14.74
   17.0371     99.77     99.38    -27.01     14.74
   17.0472     99.57     99.54    -27.37     14.75
   17.0574     98.82     99.70    -28.29     14.75
   17.0676    100.29     99.86    -26.98     14.75
   17.0777     98.57    100.02    -28.86     14.75
   17.0879    101.07    100.18    -26.52     14.75
   17.0981    101.29    100.35    -26.46     14.75
   17.1082    101.01    100.51    -26.91     14.75
   17.1184    102.91    100.67    -25.17     14.75
   17.1285    100.93    100.84    -27.31     14.75
   17.1387    101.45    101.00    -26.96     14.75
   17.1489    104.23    101.17    -24.34     14.75
   17.1590    101.87    101.33    -26.87     14.75
   17.1692    102.65    101.50    -26.26     14.75
   17.1794    102.24    101.67    -26.83     14.75
   17.1895    102.24    101.84    -27.00     14.76
   17.1997    101.96    102.01    -27.45     14.76
   17.2099    102.26    102.18    -27.32     14.76
   17.2200    101.26    102.35    -28.49     14.76
   17.2302    103.05    102.52    -26.88     14.76
   17.2404    103.23    102.70    -26.87     14.76
   17.2505    102.85    102.87    -27.43     14.76
   17.2607    104.44    103.05    -26.01     14.76
   17.2709    104.95    103.23    -25.68     14.76
   17.2810    103.90    103.41    -26.91     14.76
   17.2912    103.93    103.59    -27.07     14.76
   17.3013    105.04    103.77    -26.14     14.76
   17.3115    105.57    103.96    -25.80     14.76
   17.3217    104.66    104.15    -26.90     14.76
   17.3318    105.98    104.34    -25.76     14.76
   17.3420    104.91    104.53    -27.03     14.77
   17.3522    106.50    104.73    -25.63     14.77
   17.3623    105.61    104.92    -26.72     14.77
   17.3725    105.77    105.13    -26.76     14.77
   17.3827    106.14    105.33    -26.60     14.77
   17.3928    107.79    105.54    -25.15     14.77
   17.4030    107.69    105.75    -25.46     14.77
   17.4132    107.90    105.96    -25.46     14.77
   17.4233    106.67    106.17    -26.91     14.77
   17.4335    106.63    106.39    -27.17     14.77
   17.4436    109.79    106.62    -24.23     14.77
   17.4538    106.05    106.84    -28.20     14.77
   17.4640    108.46    107.08    -26.02     14.77
   17.4741    108.73    107.31    -25.99     14.77
   17.4843    109.40    107.55    -25.56     14.78
   17.4945    108.71    107.80    -26.49     14.78
   17.5046    111.54    108.05    -23.91     14.78
   17.5148    109.95    108.30    -25.76     14.78
   17.5250    110.21    108.56    -25.76     14.78
   17.5351    110.65    108.83    -25.58     14.78
   17.5453    112.43    109.10    -24.07     14.78
   17.5555    112.28    109.38    -24.50     14.78
   17.5656    112.76    109.66    -24.30     14.78
   17.5758    112.71    109.95    -24.65     14.78
   17.5859    113.18    110.25    -24.47     14.78
   17.5961    113.57    110.55    -24.39     14.78
   17.6063    114.76    110.86    -23.51     14.78
   17.6164    112.97    111.18    -25.62     14.78
   17.6266    116.15    111.51    -22.77     14.78
   17.6368    115.26    111.85    -23.99     14.79
   17.6469    115.34    112.19    -24.26     14.79
   17.6571    115.47    112.54    -24.48     14.79
   17.6673    117.17    112.91    -23.15     14.79
   17.6774    115.86    113.28    -24.83     14.79
   17.6876    116.03    113.67    -25.04     14.79
   17.6978    117.35    114.06    -24.12     14.79
   17.7079    118.79    114.46    -23.08     14.79
   17.7181    117.99    114.88    -24.30     14.79
   17.7283    118.62    115.31    -24.10     14.79
   17.7384    116.77    115.75    -26.39     14.79
   17.7486    117.67    116.21    -25.95     14.79
   17.7587    120.70    116.68    -23.38     14.79
   17.7689    121.09    117.16    -23.48     14.79
   17.7791    121.19    117.66    -23.88     14.80
   17.7892    121.96    118.17    -23.62     14.80
   17.7994    121.61    118.71    -24.50     14.80
   17.8096    121.63    119.25    -25.03     14.80
   17.8197    124.46    119.82    -22.76     14.80
   17.8299    122.74    120.40    -25.07     14.80
   17.8401    124.49    121.00    -23.92     14.80
   17.8502    124.80    121.62    -24.23     14.80
   17.8604    125.78    122.26    -23.89     14.80
   17.8706    125.79    122.93    -24.54     14.80
   17.8807    127.23    123.61    -23.78     14.80
   17.8909    128.00    124.31    -23.72     14.80
   17.9010    129.33    125.04    -23.12     14.80
   17.9112    128.62    125.80    -24.58     14.80
   17.9214    129.28    126.58    -24.71     14.81
   17.9315    130.76    127.38    -24.03     14.81
   17.9417    132.71    128.22    -22.91     14.81
   17.9519    132.63    129.08    -23.86     14.81
   17.9620    133.23    129.96    -24.14     14.81
   17.9722    133.96    130.89    -24.33     14.81
   17.9824    136.23    131.84    -23.02     14.81
   17.9925    135.29    132.82    -24.94     14.81
   18.0027    137.74    133.84    -23.51     14.81
   18.0129    138.59    134.89    -23.71     14.81
   18.0230    137.70    135.97    -25.68     14.81
   18.0332    139.96    137.10    -24.55     14.81
   18.0434    141.64    138.27    -24.03     14.81
   18.0535    144.11    139.46    -22.75     14.81
   18.0637    146.01    140.70    -22.10     14.81
   18.0738    145.54    141.97    -23.84     14.82
   18.0840    145.82    143.30    -24.89     14.82
   18.0942    148.85    144.67    -23.23     14.82
   18.1043    149.90    146.08    -23.58     14.82
   18.1145    150.45    147.54    -24.49     14.82
   18.1247    153.61    149.05    -22.84     14.82
   18.1348    153.75    150.59    -24.25     14.82
   18.1450    155.09    152.20    -24.51     14.82
   18.1552    157.60    153.85    -23.66     14.82
   18.1653    158.26    155.55    -24.69     14.82
   18.1755    159.88    157.31    -24.84     14.82
   18.1857    162.67    159.13    -23.86     14.82
   18.1958    161.86    160.98    -26.53     14.82
   18.2060    163.43    162.91    -26.88     14.82
   18.2161    166.96    164.87    -25.32     14.83
   18.2263    169.01    166.91    -25.30     14.83
   18.2365    169.72    169.01    -26.69     14.83
   18.2466    175.70    171.14    -22.85     14.83
   18.2568    176.24    173.35    -24.52     14.83
   18.2670    176.93    175.63    -26.10     14.83
   18.2771    182.17    177.93    -23.17     14.83
   18.2873    183.68    180.32    -24.05     14.83
   18.2975    185.03    182.77    -25.14     14.83
   18.3076    188.55    185.24    -24.10     14.83
   18.3178    189.86    187.80    -25.35     14.83
   18.3280    192.46    190.42    -25.36     14.83
   18.3381    197.98    193.05    -22.48     14.83
   18.3483    200.09    195.77    -23.09     14.83
   18.3585    201.83    198.53    -24.11     14.84
   18.3686    206.46    201.31    -22.26     14.84
   18.3788    208.70    204.16    -22.86     14.84
   18.3889    209.86    207.01    -24.56     14.84
   18.3991    215.84    209.93    -21.50     14.84
   18.4093    215.77    212.87    -24.51     14.84
   18.4194    217.83    215.81    -25.38     14.84
   18.4296    223.89    218.78    -22.30     14.84
   18.4398    225.85    221.76    -23.32     14.84
   18.4499    228.90    224.71    -23.22     14.84
   18.4601    233.23    227.68    -21.86     14.84
   18.4703    234.36    230.63    -23.67     14.84
   18.4804    234.58    233.51    -26.34     14.84
   18.4906    242.44    236.38    -21.35     14.84
   18.5008    243.47    239.20    -23.14     14.84
   18.5109    247.03    241.92    -22.30     14.85
   18.5211    250.39    244.59    -21.61     14.85
   18.5312    250.23    247.14    -24.32     14.85
   18.5414    254.05    249.61    -22.97     14.85
   18.5516    254.12    251.96    -25.25     14.85
   18.5617    257.68    254.15    -23.88     14.85
   18.5719    259.25    256.22    -24.38     14.85
   18.5821    263.80    258.13    -21.73     14.85
   18.5922    263.12    259.84    -24.13     14.85
   18.6024    263.81    261.39    -24.98     14.85
   18.6126    267.18    262.74    -22.96     14.85
   18.6227    269.63    263.87    -21.65     14.85
   18.6329    269.05    264.80    -23.16     14.85
   18.6431    271.76    265.51    -21.15     14.85
   18.6532    269.99    265.98    -23.40     14.86
   18.6634    271.79    266.23    -21.85     14.86
   18.6736    270.62    266.25    -23.04     14.86
   18.6837    269.68    266.04    -23.76     14.86
   18.6939    269.55    265.59    -23.45     14.86
   18.7040    267.50    264.93    -24.83     14.86
   18.7142    266.90    264.03    -24.54     14.86
   18.7244    266.27    262.92    -24.06     14.86
   18.7345    264.96    261.62    -24.06     14.86
   18.7447    265.15    260.10    -22.36     14.86
   18.7549    260.32    258.40    -25.49     14.86
   18.7650    260.80    256.54    -23.15     14.86
   18.7752    260.57    254.50    -21.34     14.86
   18.7854    257.88    252.31    -21.84     14.86
   18.7955    254.55    250.01    -22.87     14.86
   18.8057    251.52    247.57    -23.45     14.87
   18.8159    247.58    245.01    -24.84     14.87
   18.8260    246.50    242.39    -23.30     14.87
   18.8362    243.31    239.66    -23.76     14.87
   18.8463    238.98    236.89    -25.32     14.87
   18.8565    235.51    234.04    -25.93     14.87
   18.8667    232.40    231.14    -26.14     14.87
   18.8768    230.93    228.24    -24.71     14.87
   18.8870    226.65    225.28    -26.04     14.87
   18.8972    225.73    222.32    -24.00     14.87
   18.9073    221.58    219.38    -25.21     14.87
   18.9175    218.79    216.42    -25.04     14.87
   18.9277    215.51    213.47    -25.37     14.87
   18.9378    211.96    210.57    -26.02     14.87
   18.9480    211.26    207.67    -23.82     14.88
   18.9582    206.90    204.80    -25.31     14.88
   18.9683    199.83    202.00    -29.57     14.88
   18.9785    198.46    199.21    -28.15     14.88
   18.9887    197.76    196.46    -26.11     14.88
   18.9988    193.63    193.79    -27.57     14.88
   19.0090    193.09    191.14    -25.46     14.88
   19.0191    187.65    188.58    -28.33     14.88
   19.0293    184.82    186.04    -28.62     14.88
   19.0395    183.85    183.56    -27.11     14.88
   19.0496    180.80    181.16    -27.77     14.88
   19.0598    178.59    178.80    -27.61     14.88
   19.0700    177.12    176.49    -26.78     14.88
   19.0801    173.91    174.27    -27.77     14.88
   19.0903    173.40    172.09    -26.09     14.89
   19.1005    172.02    169.96    -25.35     14.89
   19.1106    166.76    167.92    -28.56     14.89
   19.1208    165.48    165.91    -27.84     14.89
   19.1310    164.77    163.97    -26.60     14.89
   19.1411    161.99    162.10    -27.52     14.89
   19.1513    160.63    160.27    -27.05     14.89
   19.1614    159.11    158.52    -26.81     14.89
   19.1716    157.50    156.80    -26.70     14.89
   19.1818    156.88    155.14    -25.66     14.89
   19.1919    154.91    153.55    -26.04     14.89
   19.2021    154.91    151.99    -24.49     14.89
   19.2123    150.67    150.49    -27.23     14.89
   19.2224    151.72    149.05    -24.74     14.89
   19.2326    150.49    147.65    -24.57     14.89
   19.2428    149.32    146.30    -24.39     14.90
   19.2529    146.54    145.01    -25.88     14.90
   19.2631    146.02    143.75    -25.14     14.90
   19.2733    144.39    142.54    -25.56     14.90
   19.2834    141.58    141.38    -27.21     14.90
   19.2936    143.62    140.26    -24.05     14.90
   19.3038    141.77    139.18    -24.81     14.90
   19.3139    141.79    138.15    -23.76     14.90
   19.3241    141.03    137.15    -23.52     14.90
   19.3342    137.38    136.20    -26.22     14.90
   19.3444    139.43    135.27    -23.25     14.90
   19.3546    138.15    134.39    -23.64     14.90
   19.3647    137.27    133.54    -23.68     14.90
   19.3749    135.95    132.73    -24.19     14.90
   19.3851    135.78    131.95    -23.58     14.91
   19.3952    134.13    131.21    -24.49     14.91
   19.4054    135.59    130.49    -22.31     14.91
   19.4156    133.17    129.81    -24.05     14.91
   19.4257    133.09    129.17    -23.48     14.91
   19.4359    132.33    128.54    -23.62     14.91
   19.4461    133.83    127.95    -21.53     14.91
   19.4562    131.98    127.39    -22.82     14.91
   19.4664    133.17    126.85    -21.09     14.91
   19.4765    132.45    126.35    -21.30     14.91
   19.4867    128.93    125.86    -24.34     14.91
   19.4969    130.10    125.40    -22.71     14.91
   19.5070    129.05    124.97    -23.33     14.91
   19.5172    128.44    124.56    -23.53     14.91
   19.5274    128.43    124.17    -23.15     14.91
   19.5375    129.84    123.81    -21.38     14.92
   19.5477    127.43    123.47    -23.45     14.92
   19.5579    128.49    123.15    -22.07     14.92
   19.5680    127.25    122.86    -23.02     14.92
   19.5782    128.62    122.58    -21.37     14.92
   19.5884    127.40    122.33    -22.33     14.92
   19.5985    125.15    122.09    -24.35     14.92
   19.6087    125.87    121.88    -23.41     14.92
   19.6188    126.22    121.68    -22.87     14.92
   19.6290    126.21    121.50    -22.70     14.92
   19.6392    126.97    121.34    -21.78     14.92
   19.6493    125.81    121.20    -22.80     14.92
   19.6595    125.76    121.08    -22.72     14.92
   19.6697    124.61    120.97    -23.77     14.92
   19.6798    125.42    120.88    -22.87     14.93
   19.6900    125.32    120.81    -22.90     14.93
   19.7002    123.74    120.75    -24.42     14.93
   19.7103    123.86    120.72    -24.26     14.93
   19.7205    124.85    120.69    -23.25     14.93
   19.7307    123.14    120.69    -24.95     14.93
   19.7408    125.05    120.69    -23.05     14.93
   19.7510    124.31    120.72    -23.81     14.93
   19.7612    125.31    120.76    -22.85     14.93
   19.7713    124.23    120.81    -23.99     14.93
   19.7815    124.07    120.88    -24.22     14.93
   19.7916    124.47    120.97    -23.90     14.93
   19.8018    125.02    121.06    -23.45     14.93
   19.8120    123.90    121.18    -24.68     14.93
   19.8221    124.37    121.31    -24.34     14.94
   19.8323    124.08    121.45    -24.77     14.94
   19.8425    124.84    121.60    -24.17     14.94
   19.8526    122.71    121.77    -26.47     14.94
   19.8628    124.29    121.96    -25.07     14.94
   19.8730    124.77    122.16    -24.79     14.94
   19.8831    123.00    122.36    -26.77     14.94
   19.8933    124.38    122.59    -25.62     14.94
   19.9035    125.34    122.83    -24.89     14.94
   19.9136    125.04    123.08    -25.44     14.94
   19.9238    125.24    123.34    -25.51     14.94
   19.9339    124.68    123.62    -26.34     14.94
   19.9441    125.30    123.91    -26.01     14.94
   19.9543    127.90    124.21    -23.71     14.94
   19.9644    125.79    124.52    -26.14     14.94
   19.9746    125.37    124.85    -26.88     14.95
   19.9848    126.68    125.19    -25.91     14.95
   19.9949    128.05    125.53    -24.89     14.95
   20.0051    127.35    125.90    -25.95     14.95
   20.0153    127.63    126.27    -26.05     14.95
   20.0254    128.99    126.65    -25.07     14.95
   20.0356    126.05    127.05    -28.40     14.95
   20.0458    127.97    127.46    -26.89     14.95
   20.0559    128.25    127.87    -27.02     14.95
   20.0661    127.78    128.29    -27.92     14.95
   20.0763    129.21    128.73    -26.93     14.95
   20.0864    127.98    129.17    -28.60     14.95
   20.0966    126.87    129.63    -30.16     14.95
   20.1067    130.26    130.09    -27.23     14.95
   20.1169    128.55    130.56    -29.41     14.96
   20.1271    129.91    131.03    -28.53     14.96
   20.1372    130.10    131.51    -28.82     14.96
   20.1474    130.39    132.01    -29.02     14.96
   20.1576    130.41    132.50    -29.50     14.96
   20.1677    132.48    133.00    -27.93     14.96
   20.1779    130.27    133.51    -30.64     14.96
   20.1881    132.10    134.02    -29.32     14.96
   20.1982    134.02    134.53    -27.91     14.96
   20.2084    133.71    135.04    -28.74     14.96
   20.2186    131.57    135.56    -31.39     14.96
   20.2287    135.12    136.07    -28.36     14.96
   20.2389    134.26    136.59    -29.73     14.96
   20.2490    133.62    137.10    -30.88     14.96
   20.2592    135.02    137.61    -30.00     14.96
   20.2694    135.46    138.12    -30.07     14.97
   20.2795    135.27    138.62    -30.76     14.97
   20.2897    136.49    139.12    -30.04     14.97
   20.2999    136.60    139.61    -30.42     14.97
   20.3100    135.49    140.09    -32.01     14.97
   20.3202    137.54    140.57    -30.44     14.97
   20.3304    139.26    141.04    -29.18     14.97
   20.3405    137.30    141.49    -31.59     14.97
   20.3507    139.79    141.93    -29.55     14.97
   20.3609    139.18    142.36    -30.58     14.97
   20.3710    140.10    142.77    -30.07     14.97
   20.3812    141.14    143.17    -29.43     14.97
   20.3914    142.30    143.55    -28.65     14.97
   20.4015    139.62    143.90    -31.69     14.97
   20.4117    142.38    144.25    -29.27     14.98
   20.4218    142.84    144.56    -29.13     14.98
   20.4320    140.98    144.86    -31.29     14.98
   20.4422    143.36    145.14    -29.18     14.98
   20.4523    143.82    145.39    -28.97     14.98
   20.4625    144.49    145.62    -28.53     14.98
   20.4727    143.11    145.82    -30.11     14.98
   20.4828    145.55    145.99    -27.85     14.98
   20.4930    142.62    146.14    -30.93     14.98
   20.5032    145.15    146.26    -28.52     14.98
   20.5133    144.50    146.35    -29.26     14.98
   20.5235    146.35    146.42    -27.47     14.98
   20.5337    147.08    146.45    -26.78     14.98
   20.5438    146.02    146.46    -27.84     14.98
   20.5540    145.23    146.43    -28.61     14.99
   20.5641    147.32    146.38    -26.47     14.99
   20.5743    148.90    146.30    -24.80     14.99
   20.5845    145.81    146.19    -27.78     14.99
   20.5946    147.40    146.05    -26.05     14.99
   20.6048    146.32    145.88    -26.96     14.99
   20.6150    145.21    145.68    -27.88     14.99
   20.6251    145.93    145.46    -26.94     14.99
   20.6353    146.49    145.21    -26.12     14.99
   20.6455    144.65    144.93    -27.69     14.99
   20.6556    146.79    144.63    -25.25     14.99
   20.6658    147.69    144.31    -24.02     14.99
   20.6760    144.07    143.96    -27.29     14.99
   20.6861    145.70    143.59    -25.29     14.99
   20.6963    144.71    143.19    -25.89     14.99
   20.7065    143.81    142.78    -26.38     15.00
   20.7166    143.35    142.35    -26.41     15.00
   20.7268    144.12    141.90    -25.19     15.00
   20.7369    141.91    141.44    -26.93     15.00
   20.7471    143.13    140.95    -25.23     15.00
   20.7573    143.25    140.46    -24.61     15.00
   20.7674    141.18    139.95    -26.18     15.00
   20.7776    141.16    139.43    -25.67     15.00
   20.7878    141.24    138.89    -25.06     15.00
   20.7979    138.59    138.36    -27.17     15.00
   20.8081    140.04    137.80    -25.17     15.00
   20.8183    137.05    137.25    -27.60     15.00
   20.8284    139.01    136.69    -25.08     15.00
   20.8386    139.48    136.12    -24.04     15.00
   20.8488    137.59    135.54    -25.36     15.01
   20.8589    135.07    134.97    -27.31     15.01
   20.8691    137.45    134.39    -24.35     15.01
   20.8792    134.79    133.82    -26.44     15.01
   20.8894    132.60    133.24    -28.05     15.01
   20.8996    135.57    132.66    -24.50     15.01
   20.9097    132.21    132.09    -27.29     15.01
   20.9199    131.19    131.52    -27.73     15.01
   20.9301    132.11    130.95    -26.24     15.01
   20.9402    129.89    130.39    -27.90     15.01
   20.9504    129.07    129.83    -28.16     15.01
   20.9606    131.85    129.27    -24.82     15.01
   20.9707    129.58    128.72    -26.55     15.01
   20.9809    127.71    128.18    -27.88     15.01
   20.9911    128.20    127.64    -26.85     15.02
   21.0012    127.90    127.12    -26.63     15.02
   21.0114    125.98    126.60    -28.02     15.02
   21.0216    124.66    126.09    -28.83     15.02
   21.0317    124.68    125.59    -28.31     15.02
   21.0419    125.18    125.09    -27.32     15.02
   21.0520    123.97    124.62    -28.05     15.02
   21.0622    124.32    124.14    -27.23     15.02
   21.0724    124.65    123.68    -26.43     15.02
   21.0825    121.90    123.23    -28.73     15.02
   21.0927    120.33    122.79    -29.86     15.02
   21.1029    119.69    122.36    -30.07     15.02
   21.1130    119.88    121.94    -29.47     15.02
   21.1232    120.78    121.53    -28.16     15.02
   21.1334    119.62    121.14    -28.92     15.02
   21.1435    120.73    120.76    -27.43     15.03
   21.1537    118.87    120.38    -28.92     15.03
   21.1639    117.51    120.02    -29.92     15.03
   21.1740    117.95    119.68    -29.13     15.03
   21.1842    116.29    119.34    -30.46     15.03
   21.1943    115.24    119.02    -31.19     15.03
   21.2045    116.24    118.71    -29.88     15.03
   21.2147    116.45    118.42    -29.37     15.03
   21.2248    115.03    118.14    -30.51     15.03
   21.2350    115.43    117.86    -29.84     15.03
   21.2452    115.50    117.61    -29.51     15.03
   21.2553    113.74    117.36    -31.03     15.03
   21.2655    114.35    117.13    -30.19     15.03
   21.2757    113.51    116.91    -30.81     15.03
   21.2858    112.64    116.71    -31.48     15.04
   21.2960    112.26    116.52    -31.66     15.04
   21.3062    114.74    116.34    -29.01     15.04
   21.3163    114.76    116.18    -28.82     15.04
   21.3265    113.74    116.03    -29.69     15.04
   21.3366    113.40    115.89    -29.89     15.04
   21.3468    112.07    115.76    -31.10     15.04
   21.3570    112.77    115.65    -30.29     15.04
   21.3671    112.76    115.56    -30.20     15.04
   21.3773    110.79    115.47    -32.09     15.04
   21.3875    111.90    115.41    -30.91     15.04
   21.3976    112.71    115.35    -30.05     15.04
   21.4078    111.76    115.31    -30.96     15.04
   21.4180    112.14    115.28    -30.55     15.04
   21.4281    113.05    115.27    -29.63     15.04
   21.4383    111.16    115.27    -31.52     15.05
   21.4485    110.97    115.28    -31.72     15.05
   21.4586    111.24    115.31    -31.48     15.05
   21.4688    110.84    115.36    -31.92     15.05
   21.4790    113.16    115.42    -29.66     15.05
   21.4891    112.34    115.49    -30.55     15.05
   21.4993    110.90    115.57    -32.08     15.05
   21.5094    110.68    115.67    -32.40     15.05
   21.5196    112.53    115.79    -30.67     15.05
   21.5298    111.55    115.92    -31.78     15.05
   21.5399    113.37    116.06    -30.10     15.05
   21.5501    112.62    116.22    -31.01     15.05
   21.5603    112.70    116.40    -31.10     15.05
   21.5704    113.62    116.59    -30.37     15.05
   21.5806    112.76    116.79    -31.44     15.06
   21.5908    111.50    117.01    -32.92     15.06
   21.6009    114.00    117.24    -30.65     15.06
   21.6111    114.46    117.50    -30.44     15.06
   21.6213    114.01    117.76    -31.16     15.06
   21.6314    112.59    118.04    -32.86     15.06
   21.6416    112.54    118.34    -33.20     15.06
   21.6517    114.20    118.65    -31.85     15.06
   21.6619    115.35    118.98    -31.03     15.06
   21.6721    116.63    119.32    -30.10     15.06
   21.6822    115.36    119.68    -31.72     15.06
   21.6924    116.93    120.05    -30.53     15.06
   21.7026    116.60    120.45    -31.25     15.06
   21.7127    116.65    120.85    -31.61     15.06
   21.7229    118.95    121.27    -29.73     15.07
   21.7331    118.99    121.71    -30.13     15.07
   21.7432    118.75    122.17    -30.82     15.07
   21.7534    120.92    122.64    -29.13     15.07
   21.7636    121.47    123.13    -29.07     15.07
   21.7737    119.12    123.63    -31.92     15.07
   21.7839    122.32    124.16    -29.24     15.07
   21.7941    124.33    124.69    -27.77     15.07
   21.8042    122.57    125.25    -30.08     15.07
   21.8144    125.29    125.82    -27.93     15.07
   21.8245    125.81    126.40    -28.00     15.07
   21.8347    125.58    127.01    -28.83     15.07
   21.8449    126.96    127.63    -28.08     15.07
   21.8550    126.75    128.26    -28.92     15.07
   21.8652    127.18    128.92    -29.14     15.07
   21.8754    128.34    129.59    -28.66     15.08
   21.8855    127.55    130.27    -30.13     15.08
   21.8957    129.47    130.97    -28.91     15.08
   21.9059    131.74    131.69    -27.36     15.08
   21.9160    131.82    132.42    -28.01     15.08
   21.9262    131.74    133.18    -28.84     15.08
   21.9364    133.42    133.94    -27.93     15.08
   21.9465    133.95    134.72    -28.17     15.08
   21.9567    134.65    135.51    -28.27     15.08
   21.9668    137.88    136.32    -25.84     15.08
   21.9770    137.63    137.14    -26.92     15.08
   21.9872    136.75    137.98    -28.64     15.08
   21.9973    138.71    138.83    -27.53     15.08
   22.0075    140.73    139.70    -26.37     15.08
   22.0177    139.25    140.57    -28.73     15.09
   22.0278    140.19    141.46    -28.67     15.09
   22.0380    142.04    142.36    -27.72     15.09
   22.0482    140.82    143.27    -29.86     15.09
   22.0583    145.15    144.18    -26.44     15.09
   22.0685    145.02    145.11    -27.50     15.09
   22.0787    144.27    146.05    -29.19     15.09
   22.0888    144.62    146.99    -29.78     15.09
   22.0990    148.45    147.94    -26.90     15.09
   22.1092    147.96    148.90    -28.35     15.09
   22.1193    148.43    149.85    -28.83     15.09
   22.1295    151.48    150.82    -26.74     15.09
   22.1396    149.91    151.77    -29.27     15.09
   22.1498    150.15    152.74    -30.00     15.09
   22.1600    152.94    153.71    -28.17     15.09
   22.1701    152.01    154.66    -30.05     15.10
   22.1803    154.66    155.62    -28.36     15.10
   22.1905    155.69    156.57    -28.28     15.10
   22.2006    157.12    157.50    -27.79     15.10
   22.2108    156.23    158.44    -29.61     15.10
   22.2210    159.70    159.36    -27.07     15.10
   22.2311    157.01    160.27    -30.66     15.10
   22.2413    160.75    161.16    -27.82     15.10
   22.2515    162.35    162.04    -27.10     15.10
   22.2616    159.99    162.89    -30.31     15.10
   22.2718    162.66    163.73    -28.48     15.10
   22.2819    163.94    164.54    -28.01     15.10
   22.2921    162.95    165.33    -29.79     15.10
   22.3023    166.06    166.09    -27.44     15.10
   22.3124    166.96    166.82    -27.27     15.11
   22.3226    165.60    167.52    -29.33     15.11
   22.3328    166.30    168.19    -29.30     15.11
   22.3429    170.16    168.82    -26.06     15.11
   22.3531    168.20    169.41    -28.62     15.11
   22.3633    169.22    169.97    -28.16     15.11
   22.3734    169.34    170.48    -28.54     15.11
   22.3836    168.29    170.95    -30.06     15.11
   22.3938    171.30    171.37    -27.48     15.11
   22.4039    168.91    171.75    -30.25     15.11
   22.4141    171.11    172.08    -28.38     15.11
   22.4243    172.63    172.36    -27.14     15.11
   22.4344    172.34    172.59    -27.65     15.11
   22.4446    169.60    172.77    -30.57     15.11
   22.4547    170.56    172.89    -29.74     15.12
   22.4649    172.44    172.96    -27.93     15.12
   22.4751    170.80    172.98    -29.58     15.12
   22.4852    172.49    172.94    -27.86     15.12
   22.4954    170.23    172.85    -30.03     15.12
   22.5056    171.15    172.70    -28.96     15.12
   22.5157    170.11    172.50    -29.80     15.12
   22.5259    172.00    172.25    -27.65     15.12
   22.5361    166.96    171.93    -32.38     15.12
   22.5462    171.23    171.57    -27.75     15.12
   22.5564    168.57    171.16    -29.99     15.12
   22.5666    166.21    170.69    -31.88     15.12
   22.5767    167.86    170.17    -29.72     15.12
   22.5869    166.40    169.61    -30.61     15.12
   22.5970    164.83    168.99    -31.57     15.12
   22.6072    166.85    168.33    -28.89     15.13
   22.6174    163.71    167.62    -31.32     15.13
   22.6275    162.57    166.88    -31.72     15.13
   22.6377    165.31    166.09    -28.18     15.13
   22.6479    162.85    165.26    -29.81     15.13
   22.6580    162.46    164.39    -29.34     15.13
   22.6682    161.68    163.49    -29.22     15.13
   22.6784    161.40    162.55    -28.56     15.13
   22.6885    158.10    161.59    -30.90     15.13
   22.6987    160.93    160.59    -27.07     15.13
   22.7089    156.39    159.57    -30.58     15.13
   22.7190    156.09    158.52    -29.84     15.13
   22.7292    157.77    157.45    -27.09     15.13
   22.7394    154.19    156.36    -29.57     15.13
   22.7495    152.60    155.25    -30.06     15.14
   22.7597    152.84    154.12    -28.69     15.14
   22.7698    151.66    152.99    -28.73     15.14
   22.7800    149.51    151.83    -29.72     15.14
   22.7902    150.95    150.66    -27.11     15.14
   22.8003    147.68    149.49    -29.21     15.14
   22.8105    146.93    148.30    -28.78     15.14
   22.8207    144.97    147.10    -29.54     15.14
   22.8308    145.95    145.92    -27.37     15.14
   22.8410    140.81    144.72    -31.31     15.14
   22.8512    143.04    143.51    -27.88     15.14
   22.8613    141.60    142.32    -28.13     15.14
   22.8715    139.90    141.12    -28.62     15.14
   22.8817    141.03    139.92    -26.29     15.14
   22.8918    141.07    138.73    -25.07     15.14
   22.9020    138.65    137.54    -26.29     15.15
   22.9121    135.85    136.36    -27.92     15.15
   22.9223    135.88    135.18    -26.70     15.15
   22.9325    132.52    134.00    -28.89     15.15
   22.9426    132.92    132.85    -27.33     15.15
   22.9528    131.40    131.69    -27.69     15.15
   22.9630    130.26    130.54    -27.69     15.15
   22.9731    129.82    129.41    -27.00     15.15
   22.9833    129.10    128.28    -26.59     15.15
   22.9935    129.46    127.17    -25.11     15.15
   23.0036    126.89    126.07    -26.59     15.15
   23.0138    125.49    124.98    -26.89     15.15
   23.0240    124.53    123.90    -26.77     15.15
   23.0341    122.27    122.84    -27.97     15.15
   23.0443    121.20    121.78    -27.99     15.16
   23.0545    121.77    120.74    -26.37     15.16
   23.0646    120.32    119.72    -26.80     15.16
   23.0748    118.01    118.70    -28.10     15.16
   23.0849    118.97    117.71    -26.14     15.16
   23.0951    118.26    116.72    -25.87     15.16
   23.1053    115.91    115.75    -27.24     15.16
   23.1154    115.80    114.79    -26.40     15.16
   23.1256    115.10    113.85    -26.15     15.16
   23.1358    113.45    112.91    -26.87     15.16
   23.1459    111.34    112.00    -28.07     15.16
   23.1561    112.76    111.10    -25.75     15.16
   23.1663    110.20    110.21    -27.42     15.16
   23.1764    108.99    109.34    -27.76     15.16
   23.1866    109.72    108.48    -26.16     15.17
   23.1968    108.30    107.63    -26.74     15.17
   23.2069    108.39    106.80    -25.82     15.17
   23.2171    107.51    105.98    -25.88     15.17
   23.2272    105.26    105.18    -27.33     15.17
   23.2374    104.32    104.39    -27.47     15.17
   23.2476    104.85    103.61    -26.16     15.17
   23.2577    104.12    102.84    -26.13     15.17
   23.2679    103.59    102.09    -25.91     15.17
   23.2781    102.48    101.35    -26.27     15.17
   23.2882    102.01    100.63    -26.02     15.17
   23.2984    102.41     99.91    -24.90     15.17
   23.3086    100.16     99.20    -26.45     15.17
   23.3187     99.06     98.52    -26.86     15.17
   23.3289    100.23     97.84    -25.01     15.17
   23.3391     98.02     97.17    -26.56     15.18
   23.3492     96.24     96.52    -27.69     15.18
   23.3594     96.15     95.87    -27.13     15.18
   23.3695     97.32     95.25    -25.33     15.18
   23.3797     95.05     94.62    -26.98     15.18
   23.3899     95.90     94.01    -25.52     15.18
   23.4000     94.80     93.42    -26.02     15.18
   23.4102     92.83     92.83    -27.40     15.18
   23.4204     93.52     92.25    -26.13     15.18
   23.4305     93.01     91.68    -26.08     15.18
   23.4407     91.59     91.13    -26.94     15.18
   23.4509     91.44     90.58    -26.54     15.18
   23.4610     90.63     90.04    -26.82     15.18
   23.4712     90.04     89.51    -26.88     15.18
   23.4814     89.95     88.99    -26.45     15.19
   23.4915     88.59     88.49    -27.30     15.19
   23.5017     88.80     87.98    -26.59     15.19
   23.5119     88.91     87.49    -25.99     15.19
   23.5220     88.20     87.01    -26.22     15.19
   23.5322     87.57     86.53    -26.37     15.19
   23.5423     86.82     86.07    -26.66     15.19
   23.5525     86.00     85.61    -27.02     15.19
   23.5627     84.07     85.16    -28.50     15.19
   23.5728     84.42     84.72    -27.71     15.19
   23.5830     83.73     84.28    -27.96     15.19
   23.5932     84.83     83.86    -26.43     15.19
   23.6033     82.97     83.44    -27.88     15.19
   23.6135     83.35     83.03    -27.08     15.19
   23.6237     81.91     82.62    -28.12     15.20
   23.6338     82.87     82.22    -26.76     15.20
   23.6440     81.98     81.83    -27.26     15.20
   23.6542     80.50     81.45    -28.35     15.20
   23.6643     80.71     81.07    -27.77     15.20
   23.6745     81.48     80.70    -26.62     15.20
   23.6846     79.83     80.33    -27.91     15.20
   23.6948     80.07     79.97    -27.31     15.20
   23.7050     79.84     79.62    -27.18     15.20
   23.7151     77.60     79.27    -29.08     15.20
   23.7253     77.06     78.93    -29.27     15.20
   23.7355     76.65     78.59    -29.35     15.20
   23.7456     77.54     78.26    -28.13     15.20
   23.7558     77.17     77.93    -28.17     15.20
   23.7660     76.20     77.61    -28.82     15.20
   23.7761     75.82     77.30    -28.89     15.21
   23.7863     76.04     76.99    -28.35     15.21
   23.7965     75.49     76.68    -28.60     15.21
   23.8066     76.45     76.38    -27.34     15.21
   23.8168     75.33     76.09    -28.16     15.21
   23.8270     75.48     75.79    -27.72     15.21
   23.8371     74.43     75.51    -28.48     15.21
   23.8473     73.38     75.22    -29.25     15.21
   23.8574     73.16     74.95    -29.19     15.21
   23.8676     73.11     74.67    -28.97     15.21
   23.8778     73.36     74.40    -28.45     15.21
   23.8879     72.84     74.14    -28.70     15.21
   23.8981     72.38     73.87    -28.90     15.21
   23.9083     72.07     73.61    -28.95     15.21
   23.9184     72.09     73.36    -28.67     15.22
   23.9286     72.28     73.11    -28.23     15.22
   23.9388     72.13     72.86    -28.13     15.22
   23.9489     70.87     72.61    -29.15     15.22
   23.9591     69.91     72.37    -29.87     15.22
   23.9693     70.43     72.13    -29.11     15.22
   23.9794     69.77     71.90    -29.54     15.22
   23.9896     71.08     71.67    -27.99     15.22
   23.9997     70.52     71.44    -28.33     15.22
   24.0099     70.78     71.21    -27.84     15.22
   24.0201     69.98     70.99    -28.42     15.22
   24.0302     69.38     70.77    -28.80     15.22
   24.0404     68.48     70.56    -29.48     15.22
   24.0506     67.34     70.34    -30.41     15.22
   24.0607     68.28     70.13    -29.26     15.22
   24.0709     68.95     69.92    -28.38     15.23
   24.0811     67.38     69.71    -29.74     15.23
   24.0912     68.76     69.51    -28.16     15.23
   24.1014     67.52     69.31    -29.20     15.23
   24.1116     66.90     69.11    -29.62     15.23
   24.1217     67.04     68.92    -29.28     15.23
   24.1319     67.06     68.72    -29.07     15.23
   24.1421     66.80     68.53    -29.13     15.23
   24.1522     67.07     68.34    -28.68     15.23
   24.1624     65.49     68.15    -30.07     15.23
   24.1725     66.38     67.97    -28.99     15.23
   24.1827     65.94     67.78    -29.25     15.23
   24.1929     64.91     67.60    -30.10     15.23
   24.2030     65.54     67.42    -29.29     15.23
   24.2132     66.29     67.25    -28.36     15.24
   24.2234     65.33     67.07    -29.15     15.24
   24.2335     64.66     66.90    -29.64     15.24
   24.2437     64.90     66.73    -29.23     15.24
   24.2539     65.54     66.56    -28.42     15.24
   24.2640     64.37     66.39    -29.42     15.24
   24.2742     63.26     66.22    -30.37     15.24
   24.2844     64.65     66.06    -28.81     15.24
   24.2945     63.55     65.89    -29.75     15.24
   24.3047     63.12     65.73    -30.02     15.24
   24.3148     64.70     65.57    -28.28     15.24
   24.3250     63.80     65.41    -29.02     15.24
   24.3352     64.84     65.26    -27.82     15.24
   24.3453     63.15     65.10    -29.36     15.24
   24.3555     63.39     64.95    -28.96     15.25
   24.3657     62.92     64.80    -29.28     15.25
   24.3758     62.76     64.65    -29.29     15.25
   24.3860     63.24     64.50    -28.66     15.25
   24.3962     62.65     64.35    -29.10     15.25
   24.4063     62.84     64.20    -28.77     15.25
   24.4165     62.30     64.06    -29.16     15.25
   24.4267     63.00     63.91    -28.32     15.25
   24.4368     62.02     63.77    -29.16     15.25
   24.4470     62.87     63.63    -28.16     15.25
   24.4572     62.59     63.49    -28.30     15.25
   24.4673     62.74     63.35    -28.01     15.25
   24.4775     62.76     63.21    -27.86     15.25
   24.4876     61.52     63.07    -28.96     15.25
   24.4978     60.70     62.94    -29.64     15.25
   24.5080     62.18     62.80    -28.03     15.26
   24.5181     60.37     62.67    -29.71     15.26
   24.5283     61.35     62.54    -28.59     15.26
   24.5385     60.04     62.41    -29.77     15.26
   24.5486     60.39     62.28    -29.29     15.26
   24.5588     60.67     62.15    -28.88     15.26
   24.5690     60.62     62.02    -28.81     15.26
   24.5791     60.83     61.89    -28.47     15.26
   24.5893     61.15     61.77    -28.02     15.26
   24.5995     59.50     61.64    -29.55     15.26
   24.6096     60.98     61.52    -27.94     15.26
   24.6198     60.34     61.39    -28.46     15.26
   24.6299     59.85     61.27    -28.83     15.26
   24.6401     59.95     61.15    -28.61     15.26
   24.6503     59.46     61.03    -28.98     15.27
   24.6604     59.80     60.91    -28.52     15.27
   24.6706     59.32     60.79    -28.88     15.27
   24.6808     58.69     60.68    -29.39     15.27
   24.6909     60.51     60.56    -27.46     15.27
   24.7011     58.99     60.44    -28.86     15.27
   24.7113     58.01     60.33    -29.72     15.27
   24.7214     59.15     60.21    -28.47     15.27
   24.7316     59.08     60.10    -28.43     15.27
   24.7418     59.28     59.99    -28.11     15.27
   24.7519     58.10     59.88    -29.18     15.27
   24.7621     59.13     59.76    -28.04     15.27
   24.7723     59.43     59.65    -27.63     15.27
   24.7824     57.05     59.54    -29.90     15.27
   24.7926     57.79     59.44    -29.05     15.27
   24.8027     57.91     59.33    -28.82     15.28
   24.8129     58.18     59.22    -28.45     15.28
   24.8231     58.46     59.11    -28.06     15.28
   24.8332     58.08     59.01    -28.33     15.28
   24.8434     57.65     58.90    -28.66     15.28
   24.8536     57.45     58.80    -28.75     15.28
   24.8637     57.26     58.70    -28.84     15.28
   24.8739     57.70     58.59    -28.30     15.28
   24.8841     57.18     58.49    -28.72     15.28
   24.8942     57.42     58.39    -28.37     15.28
   24.9044     56.76     58.29    -28.93     15.28
   24.9146     57.91     58.19    -27.68     15.28
   24.9247     57.56     58.09    -27.93     15.28
   24.9349     57.77     57.99    -27.62     15.28
   24.9450     57.43     57.89    -27.87     15.29
   24.9552     56.59     57.79    -28.61     15.29
   24.9654     58.09     57.69    -27.01     15.29
   24.9755     56.65     57.60    -28.35     15.29
   24.9857     57.44     57.50    -27.47     15.29
   24.9959     56.88     57.41    -27.93     15.29
   25.0060     56.75     57.31    -27.97     15.29
   25.0162     57.41     57.22    -27.21     15.29
   25.0264     56.27     57.12    -28.26     15.29
   25.0365     55.70     57.03    -28.74     15.29
   25.0467     56.70     56.94    -27.64     15.29
   25.0569     57.26     56.84    -26.99     15.29
   25.0670     55.99     56.75    -28.17     15.29
   25.0772     55.64     56.66    -28.43     15.29
   25.0874     56.08     56.57    -27.90     15.30
   25.0975     55.52     56.48    -28.37     15.30
   25.1077     55.69     56.39    -28.11     15.30
   25.1178     56.27     56.30    -27.44     15.30
   25.1280     55.97     56.22    -27.65     15.30
   25.1382     56.20     56.13    -27.33     15.30
   25.1483     56.60     56.04    -26.85     15.30
   25.1585     56.32     55.95    -27.04     15.30
   25.1687     55.71     55.87    -27.56     15.30
   25.1788     55.32     55.78    -27.87     15.30
   25.1890     55.56     55.70    -27.54     15.30
   25.1992     54.90     55.61    -28.12     15.30
   25.2093     54.65     55.53    -28.28     15.30
   25.2195     55.59     55.44    -27.26     15.30
   25.2297     56.70     55.36    -26.07     15.30
   25.2398     55.79     55.28    -26.89     15.31
   25.2500     55.80     55.20    -26.80     15.31
   25.2601     54.50     55.11    -28.02     15.31
   25.2703     55.50     55.03    -26.94     15.31
   25.2805     53.70     54.95    -28.66     15.31
   25.2906     55.40     54.87    -26.88     15.31
   25.3008     54.80     54.79    -27.40     15.31
   25.3110     55.74     54.71    -26.38     15.31
   25.3211     54.65     54.63    -27.39     15.31
   25.3313     55.32     54.55    -26.64     15.31
   25.3415     56.15     54.48    -25.73     15.31
   25.3516     54.86     54.40    -26.94     15.31
   25.3618     54.54     54.32    -27.19     15.31
   25.3720     54.62     54.24    -27.03     15.31
   25.3821     54.11     54.17    -27.46     15.32
   25.3923     54.66     54.09    -26.84     15.32
   25.4024     55.18     54.02    -26.24     15.32
   25.4126     54.74     53.94    -26.61     15.32
   25.4228     54.66     53.86    -26.61     15.32
   25.4329     54.86     53.79    -26.34     15.32
   25.4431     53.89     53.72    -27.23     15.32
   25.4533     55.24     53.64    -25.81     15.32
   25.4634     53.45     53.57    -27.53     15.32
   25.4736     54.16     53.50    -26.74     15.32
   25.4838     55.10     53.42    -25.73     15.32
   25.4939     55.02     53.35    -25.74     15.32
   25.5041     54.18     53.28    -26.51     15.32
   25.5143     53.29     53.21    -27.33     15.32
   25.5244     54.88     53.14    -25.66     15.32
   25.5346     54.59     53.07    -25.88     15.33
   25.5448     54.04     53.00    -26.36     15.33
   25.5549     54.74     52.93    -25.59     15.33
   25.5651     53.45     52.86    -26.82     15.33
   25.5752     53.38     52.79    -26.82     15.33
   25.5854     53.93     52.72    -26.20     15.33
   25.5956     54.06     52.65    -26.00     15.33
   25.6057     54.86     52.59    -25.13     15.33
   25.6159     53.21     52.52    -26.71     15.33
   25.6261     54.13     52.45    -25.73     15.33
   25.6362     53.73     52.39    -26.06     15.33
   25.6464     52.84     52.32    -26.88     15.33
   25.6566     54.26     52.25    -25.40     15.33
   25.6667     54.30     52.19    -25.29     15.33
   25.6769     53.32     52.12    -26.21     15.34
   25.6871     52.05     52.06    -27.41     15.34
   25.6972     54.09     51.99    -25.31     15.34
   25.7074     54.24     51.93    -25.09     15.34
   25.7175     53.33     51.87    -25.94     15.34
   25.7277     53.02     51.80    -26.19     15.34
   25.7379     52.95     51.74    -26.19     15.34
   25.7480     53.57     51.68    -25.51     15.34
   25.7582     53.12     51.61    -25.90     15.34
   25.7684     53.43     51.55    -25.53     15.34
   25.7785     54.05     51.49    -24.85     15.34
   25.7887     53.01     51.43    -25.83     15.34
   25.7989     52.85     51.37    -25.92     15.34
   25.8090     52.91     51.31    -25.80     15.34
   25.8192     52.93     51.25    -25.72     15.35
   25.8294     53.07     51.19    -25.52     15.35
   25.8395     52.95     51.13    -25.59     15.35
   25.8497     52.43     51.07    -26.05     15.35
   25.8599     51.43     51.01    -26.99     15.35
   25.8700     52.84     50.95    -25.52     15.35
   25.8802     51.44     50.90    -26.86     15.35
   25.8903     52.13     50.84    -26.11     15.35
   25.9005     52.52     50.78    -25.67     15.35
   25.9107     53.29     50.72    -24.84     15.35
   25.9208     52.09     50.67    -25.98     15.35
   25.9310     51.46     50.61    -26.56     15.35
   25.9412     52.67     50.55    -25.29     15.35
   25.9513     51.74     50.50    -26.17     15.35
   25.9615     52.49     50.44    -25.36     15.35
   25.9717     51.32     50.39    -26.48     15.36
   25.9818     52.60     50.34    -25.14     15.36
   25.9920     50.56     50.28    -27.13     15.36
   26.0022     51.55     50.23    -26.08     15.36
   26.0123     51.51     50.17    -26.07     15.36
   26.0225     51.55     50.12    -25.98     15.36
   26.0326     51.21     50.07    -26.26     15.36
   26.0428     51.08     50.02    -26.34     15.36
   26.0530     51.95     49.96    -25.42     15.36
   26.0631     51.12     49.91    -26.20     15.36
   26.0733     51.20     49.86    -26.07     15.36
   26.0835     50.98     49.81    -26.24     15.36
   26.0936     51.24     49.76    -25.93     15.36
   26.1038     50.27     49.71    -26.85     15.36
   26.1140     50.01     49.66    -27.06     15.37
   26.1241     51.78     49.61    -25.24     15.37
   26.1343     51.27     49.56    -25.70     15.37
   26.1445     50.36     49.51    -26.56     15.37
   26.1546     50.97     49.47    -25.90     15.37
   26.1648     50.50     49.42    -26.32     15.37
   26.1750     50.27     49.37    -26.51     15.37
   26.1851     50.71     49.32    -26.02     15.37
   26.1953     50.40     49.28    -26.28     15.37
   26.2054     50.24     49.23    -26.40     15.37
   26.2156     49.90     49.18    -26.69     15.37
   26.2258     50.32     49.14    -26.22     15.37
   26.2359     50.72     49.09    -25.78     15.37
   26.2461     50.24     49.05    -26.21     15.37
   26.2563     49.29     49.00    -27.12     15.38
   26.2664     49.32     48.96    -27.04     15.38
   26.2766     49.65     48.91    -26.67     15.38
   26.2868     49.15     48.87    -27.13     15.38
   26.2969     50.15     48.83    -26.08     15.38
   26.3071     49.74     48.78    -26.45     15.38
   26.3173     49.12     48.74    -27.03     15.38
   26.3274     50.01     48.70    -26.10     15.38
   26.3376     49.70     48.66    -26.37     15.38
   26.3477     50.26     48.62    -25.76     15.38
   26.3579     48.95     48.58    -27.03     15.38
   26.3681     49.74     48.54    -26.20     15.38
   26.3782     49.59     48.50    -26.31     15.38
   26.3884     49.50     48.46    -26.36     15.38
   26.3986     48.99     48.42    -26.83     15.38
   26.4087     49.49     48.38    -26.30     15.39
   26.4189     49.45     48.34    -26.30     15.39
   26.4291     49.77     48.30    -25.94     15.39
   26.4392     49.36     48.27    -26.31     15.39
   26.4494     48.23     48.23    -27.41     15.39
   26.4596     48.73     48.19    -26.87     15.39
   26.4697     49.28     48.16    -26.28     15.39
   26.4799     48.60     48.12    -26.93     15.39
   26.4901     49.68     48.09    -25.81     15.39
   26.5002     48.39     48.05    -27.07     15.39
   26.5104     48.63     48.02    -26.79     15.39
   26.5205     48.39     47.98    -27.00     15.39
   26.5307     47.93     47.95    -27.43     15.39
   26.5409     48.41     47.92    -26.91     15.39
   26.5510     48.35     47.88    -26.94     15.40
   26.5612     49.17     47.85    -26.09     15.40
   26.5714     48.71     47.82    -26.52     15.40
   26.5815     48.46     47.79    -26.74     15.40
   26.5917     48.67     47.76    -26.49     15.40
   26.6019     47.69     47.73    -27.44     15.40
   26.6120     48.74     47.70    -26.36     15.40
   26.6222     47.82     47.67    -27.26     15.40
   26.6324     48.56     47.64    -26.49     15.40
   26.6425     48.65     47.61    -26.37     15.40
   26.6527     48.28     47.58    -26.71     15.40
   26.6628     48.83     47.56    -26.13     15.40
   26.6730     49.01     47.53    -25.93     15.40
   26.6832     47.96     47.50    -26.95     15.40
   26.6933     47.85     47.48    -27.04     15.40
   26.7035     48.92     47.45    -25.94     15.41
   26.7137     47.44     47.43    -27.40     15.41
   26.7238     48.13     47.41    -26.68     15.41
   26.7340     48.19     47.38    -26.60     15.41
   26.7442     49.23     47.36    -25.54     15.41
   26.7543     47.08     47.34    -27.66     15.41
   26.7645     48.33     47.32    -26.39     15.41
   26.7747     47.40     47.29    -27.30     15.41
   26.7848     48.41     47.27    -26.27     15.41
   26.7950     47.37     47.25    -27.29     15.41
   26.8052     48.21     47.23    -26.43     15.41
   26.8153     48.05     47.22    -26.57     15.41
   26.8255     46.24     47.20    -28.36     15.41
   26.8356     47.12     47.18    -27.47     15.41
   26.8458     47.37     47.16    -27.20     15.42
   26.8560     47.43     47.15    -27.12     15.42
   26.8661     47.24     47.13    -27.30     15.42
   26.8763     46.20     47.12    -28.32     15.42
   26.8865     47.20     47.10    -27.31     15.42
   26.8966     47.02     47.09    -27.48     15.42
   26.9068     47.63     47.08    -26.85     15.42
   26.9170     46.24     47.07    -28.23     15.42
   26.9271     47.95     47.05    -26.51     15.42
   26.9373     47.04     47.04    -27.41     15.42
   26.9475     46.79     47.03    -27.65     15.42
   26.9576     46.76     47.03    -27.67     15.42
   26.9678     47.80     47.02    -26.62     15.42
   26.9779     47.42     47.01    -27.00     15.42
   26.9881     47.31     47.00    -27.10     15.43
   26.9983     47.91     47.00    -26.49     15.43
   27.0084     46.90     46.99    -27.50     15.43
   27.0186     47.39     46.99    -27.01     15.43
   27.0288     47.40     46.99    -26.99     15.43
   27.0389     46.98     46.98    -27.41     15.43
   27.0491     46.53     46.98    -27.86     15.43
   27.0593     46.70     46.98    -27.69     15.43
   27.0694     47.03     46.98    -27.36     15.43
   27.0796     46.45     46.99    -27.94     15.43
   27.0898     47.55     46.99    -26.84     15.43
   27.0999     47.40     46.99    -27.00     15.43
   27.1101     46.38     47.00    -28.02     15.43
   27.1202     46.93     47.00    -27.48     15.43
   27.1304     48.20     47.01    -26.21     15.43
   27.1406     47.34     47.02    -27.08     15.44
   27.1507     47.45     47.03    -26.98     15.44
   27.1609     46.60     47.04    -27.84     15.44
   27.1711     47.45     47.05    -27.00     15.44
   27.1812     47.30     47.06    -27.17     15.44
   27.1914     46.67     47.07    -27.81     15.44
   27.2016     47.01     47.09    -27.48     15.44
   27.2117     47.52     47.10    -26.99     15.44
   27.2219     46.56     47.12    -27.97     15.44
   27.2321     47.18     47.14    -27.37     15.44
   27.2422     48.11     47.16    -26.46     15.44
   27.2524     47.26     47.18    -27.33     15.44
   27.2626     47.43     47.21    -27.18     15.44
   27.2727     46.38     47.23    -28.26     15.44
   27.2829     47.82     47.26    -26.84     15.45
   27.2930     47.37     47.29    -27.32     15.45
   27.3032     46.76     47.31    -27.96     15.45
   27.3134     47.07     47.35    -27.68     15.45
   27.3235     46.40     47.38    -28.38     15.45
   27.3337     46.64     47.41    -28.18     15.45
   27.3439     46.49     47.45    -28.36     15.45
   27.3540     47.16     47.49    -27.73     15.45
   27.3642     47.02     47.53    -27.91     15.45
   27.3744     47.81     47.57    -27.16     15.45
   27.3845     47.57     47.61    -27.45     15.45
   27.3947     47.65     47.66    -27.41     15.45
   27.4049     47.71     47.70    -27.40     15.45
   27.4150     48.51     47.75    -26.65     15.45
   27.4252     47.87     47.80    -27.34     15.45
   27.4353     47.09     47.86    -28.17     15.46
   27.4455     47.55     47.91    -27.77     15.46
   27.4557     46.65     47.97    -28.73     15.46
   27.4658     46.91     48.03    -28.53     15.46
   27.4760     47.61     48.09    -27.89     15.46
   27.4862     48.19     48.16    -27.38     15.46
   27.4963     48.60     48.23    -27.03     15.46
   27.5065     49.09     48.30    -26.61     15.46
   27.5167     48.38     48.37    -27.40     15.46
   27.5268     47.14     48.45    -28.71     15.46
   27.5370     48.48     48.52    -27.45     15.46
   27.5472     48.30     48.60    -27.71     15.46
   27.5573     48.87     48.69    -27.22     15.46
   27.5675     47.14     48.78    -29.04     15.46
   27.5777     48.22     48.87    -28.05     15.47
   27.5878     48.67     48.96    -27.69     15.47
   27.5980     48.24     49.05    -28.22     15.47
   27.6081     48.09     49.15    -28.47     15.47
   27.6183     48.07     49.25    -28.59     15.47
   27.6285     49.51     49.36    -27.26     15.47
   27.6386     48.92     49.47    -27.96     15.47
   27.6488     49.02     49.58    -27.97     15.47
   27.6590     49.91     49.70    -27.20     15.47
   27.6691     49.02     49.82    -28.20     15.47
   27.6793     50.00     49.94    -27.35     15.47
   27.6895     49.05     50.07    -28.43     15.47
   27.6996     49.91     50.20    -27.70     15.47
   27.7098     51.04     50.34    -26.70     15.47
   27.7200     50.59     50.48    -27.29     15.48
   27.7301     50.89     50.62    -27.14     15.48
   27.7403     49.91     50.77    -28.26     15.48
   27.7504     51.07     50.92    -27.25     15.48
   27.7606     50.96     51.08    -27.52     15.48
   27.7708     50.01     51.24    -28.63     15.48
   27.7809     51.12     51.40    -27.69     15.48
   27.7911     51.18     51.57    -27.80     15.48
   27.8013     51.53     51.75    -27.62     15.48
   27.8114     49.99     51.93    -29.34     15.48
   27.8216     51.39     52.11    -28.13     15.48
   27.8318     50.87     52.30    -28.84     15.48
   27.8419     51.64     52.49    -28.26     15.48
   27.8521     52.84     52.69    -27.26     15.48
   27.8623     52.35     52.90    -27.96     15.48
   27.8724     52.12     53.11    -28.39     15.49
   27.8826     52.61     53.32    -28.12     15.49
   27.8928     53.04     53.55    -27.91     15.49
   27.9029     54.36     53.77    -26.82     15.49
   27.9131     53.82     54.00    -27.59     15.49
   27.9232     53.98     54.24    -27.67     15.49
   27.9334     53.74     54.48    -28.15     15.49
   27.9436     54.10     54.73    -28.04     15.49
   27.9537     55.03     54.99    -27.36     15.49
   27.9639     55.60     55.25    -27.06     15.49
   27.9741     55.55     55.52    -27.37     15.49
   27.9842     56.36     55.79    -26.83     15.49
   27.9944     55.19     56.07    -28.28     15.49
   28.0046     56.55     56.35    -27.21     15.49
   28.0147     58.25     56.64    -25.80     15.50
   28.0249     57.23     56.94    -27.11     15.50
   28.0351     57.12     57.24    -27.53     15.50
   28.0452     57.90     57.55    -27.05     15.50
   28.0554     57.97     57.86    -27.30     15.50
   28.0655     57.91     58.18    -27.68     15.50
   28.0757     57.91     58.51    -28.00     15.50
   28.0859     60.10     58.84    -26.15     15.50
   28.0960     60.38     59.17    -26.20     15.50
   28.1062     60.18     59.52    -26.74     15.50
   28.1164     61.72     59.87    -25.55     15.50
   28.1265     60.88     60.22    -26.74     15.50
   28.1367     62.50     60.58    -25.48     15.50
   28.1469     62.74     60.94    -25.61     15.50
   28.1570     61.08     61.30    -27.63     15.50
   28.1672     62.66     61.68    -26.42     15.51
   28.1774     62.88     62.05    -26.58     15.51
   28.1875     64.20     62.43    -25.64     15.51
   28.1977     64.13     62.81    -26.09     15.51
   28.2079     64.75     63.20    -25.86     15.51
   28.2180     64.23     63.59    -26.76     15.51
   28.2282     64.63     63.98    -26.75     15.51
   28.2383     64.97     64.37    -26.80     15.51
   28.2485     66.44     64.76    -25.73     15.51
   28.2587     66.80     65.16    -25.76     15.51
   28.2688     67.19     65.55    -25.76     15.51
   28.2790     67.36     65.94    -25.99     15.51
   28.2892     67.98     66.33    -25.76     15.51
   28.2993     67.43     66.72    -26.69     15.51
   28.3095     68.41     67.11    -26.10     15.52
   28.3197     69.75     67.49    -25.14     15.52
   28.3298     70.24     67.86    -25.03     15.52
   28.3400     68.17     68.24    -27.47     15.52
   28.3502     69.62     68.61    -26.39     15.52
   28.3603     70.39     68.96    -25.98     15.52
   28.3705     70.10     69.31    -26.62     15.52
   28.3806     70.37     69.65    -26.69     15.52
   28.3908     70.40     69.99    -26.99     15.52
   28.4010     71.46     70.31    -26.25     15.52
   28.4111     70.79     70.62    -27.23     15.52
   28.4213     71.41     70.91    -26.91     15.52
   28.4315     71.86     71.20    -26.74     15.52
   28.4416     71.23     71.46    -27.64     15.52
   28.4518     71.57     71.71    -27.55     15.53
   28.4620     72.26     71.95    -27.09     15.53
   28.4721     71.88     72.16    -27.69     15.53
   28.4823     72.24     72.36    -27.53     15.53
   28.4925     74.63     72.54    -25.32     15.53
   28.5026     72.87     72.70    -27.24     15.53
   28.5128     73.88     72.84    -26.36     15.53
   28.5230     72.15     72.96    -28.21     15.53
   28.5331     74.12     73.05    -26.34     15.53
   28.5433     73.40     73.12    -27.13     15.53
   28.5534     73.49     73.17    -27.09     15.53
   28.5636     73.26     73.20    -27.35     15.53
   28.5738     74.20     73.21    -26.41     15.53
   28.5839     73.35     73.19    -27.24     15.53
   28.5941     72.75     73.15    -27.80     15.53
   28.6043     73.45     73.08    -27.04     15.54
   28.6144     72.61     72.99    -27.79     15.54
   28.6246     73.01     72.88    -27.28     15.54
   28.6348     72.95     72.75    -27.21     15.54
   28.6449     71.63     72.60    -28.38     15.54
   28.6551     73.03     72.43    -26.80     15.54
   28.6653     72.14     72.23    -27.50     15.54
   28.6754     70.94     72.02    -28.48     15.54
   28.6856     71.99     71.78    -27.20     15.54
   28.6957     71.09     71.53    -27.85     15.54
   28.7059     70.91     71.26    -27.76     15.54
   28.7161     70.80     70.98    -27.58     15.54
   28.7262     70.71     70.68    -27.37     15.54
   28.7364     69.71     70.36    -28.06     15.54
   28.7466     69.10     70.03    -28.33     15.55
   28.7567     69.25     69.69    -27.84     15.55
   28.7669     68.45     69.33    -28.29     15.55
   28.7771     69.24     68.97    -27.13     15.55
   28.7872     68.23     68.60    -27.77     15.55
   28.7974     67.94     68.21    -27.68     15.55
   28.8076     68.26     67.82    -26.97     15.55
   28.8177     68.37     67.43    -26.46     15.55
   28.8279     65.16     67.02    -29.27     15.55
   28.8381     66.66     66.61    -27.36     15.55
   28.8482     66.56     66.20    -27.05     15.55
   28.8584     65.01     65.78    -28.18     15.55
   28.8685     65.32     65.37    -27.45     15.55
   28.8787     64.61     64.95    -27.74     15.55
   28.8889     63.97     64.52    -27.96     15.56
   28.8990     65.52     64.10    -25.99     15.56
   28.9092     64.79     63.68    -26.29     15.56
   28.9194     62.76     63.26    -27.90     15.56
   28.9295     62.53     62.84    -27.71     15.56
   28.9397     62.57     62.42    -27.25     15.56
   28.9499     62.73     62.00    -26.67     15.56
   28.9600     61.03     61.59    -27.96     15.56
   28.9702     61.81     61.17    -26.77     15.56
   28.9804     60.60     60.76    -27.57     15.56
   28.9905     60.76     60.36    -27.01     15.56
   29.0007     60.53     59.96    -26.84     15.56
   29.0108     59.59     59.57    -27.38     15.56
   29.0210     59.44     59.17    -27.14     15.56
   29.0312     59.63     58.78    -26.56     15.56
   29.0413     57.78     58.40    -28.03     15.57
   29.0515     58.71     58.03    -26.72     15.57
   29.0617     58.47     57.65    -26.59     15.57
   29.0718     57.53     57.29    -27.16     15.57
   29.0820     58.22     56.93    -26.11     15.57
   29.0922     57.75     56.57    -26.22     15.57
   29.1023     56.66     56.22    -26.97     15.57
   29.1125     55.73     55.88    -27.55     15.57
   29.1227     56.64     55.54    -26.30     15.57
   29.1328     56.02     55.20    -26.59     15.57
   29.1430     55.84     54.88    -26.44     15.57
   29.1531     55.23     54.56    -26.73     15.57
   29.1633     54.07     54.24    -27.57     15.57
   29.1735     54.68     53.93    -26.65     15.57
   29.1836     54.43     53.62    -26.60     15.58
   29.1938     53.77     53.32    -26.96     15.58
   29.2040     53.96     53.03    -26.48     15.58
   29.2141     52.42     52.74    -27.73     15.58
   29.2243     53.39     52.46    -26.48     15.58
   29.2345     52.46     52.18    -27.13     15.58
   29.2446     52.83     51.91    -26.49     15.58
   29.2548     51.98     51.64    -27.07     15.58
   29.2650     51.65     51.38    -27.14     15.58
   29.2751     52.10     51.13    -26.43     15.58
   29.2853     51.66     50.88    -26.62     15.58
   29.2955     51.02     50.63    -27.02     15.58
   29.3056     52.13     50.39    -25.67     15.58
   29.3158     51.02     50.15    -26.54     15.58
   29.3259     50.52     49.92    -26.81     15.58
   29.3361     50.85     49.70    -26.25     15.59
   29.3463     49.66     49.47    -27.22     15.59
   29.3564     49.79     49.26    -26.87     15.59
   29.3666     49.45     49.04    -27.00     15.59
   29.3768     49.31     48.83    -26.93     15.59
   29.3869     49.26     48.63    -26.78     15.59
   29.3971     50.48     48.43    -25.36     15.59
   29.4073     48.95     48.23    -26.69     15.59
   29.4174     48.02     48.04    -27.43     15.59
   29.4276     48.15     47.85    -27.11     15.59
   29.4378     48.40     47.67    -26.67     15.59
   29.4479     47.17     47.49    -27.72     15.59
   29.4581     47.39     47.31    -27.33     15.59
   29.4682     47.32     47.14    -27.22     15.59
   29.4784     47.78     46.97    -26.59     15.60
   29.4886     46.68     46.80    -27.53     15.60
   29.4987     47.98     46.64    -26.06     15.60
   29.5089     47.20     46.48    -26.68     15.60
   29.5191     46.99     46.32    -26.73     15.60
   29.5292     45.59     46.17    -27.98     15.60
   29.5394     46.77     46.01    -26.65     15.60
   29.5496     46.38     45.86    -26.89     15.60
   29.5597     46.18     45.72    -26.95     15.60
   29.5699     46.76     45.58    -26.22     15.60
   29.5801     45.63     45.44    -27.21     15.60
   29.5902     46.01     45.30    -26.70     15.60
   29.6004     45.59     45.16    -26.98     15.60
   29.6106     44.49     45.03    -27.95     15.60
   29.6207     44.94     44.90    -27.37     15.61
   29.6309     45.04     44.77    -27.14     15.61
   29.6410     44.98     44.65    -27.07     15.61
   29.6512     44.06     44.52    -27.87     15.61
   29.6614     44.77     44.40    -27.04     15.61
   29.6715     45.72     44.28    -25.97     15.61
   29.6817     44.99     44.16    -26.58     15.61
   29.6919     45.01     44.05    -26.44     15.61
   29.7020     44.80     43.94    -26.54     15.61
   29.7122     44.38     43.82    -26.85     15.61
   29.7224     43.68     43.71    -27.44     15.61
   29.7325     43.40     43.61    -27.61     15.61
   29.7427     44.59     43.50    -26.31     15.61
   29.7529     43.60     43.39    -27.20     15.61
   29.7630     45.30     43.29    -25.40     15.61
   29.7732     43.24     43.19    -27.35     15.62
   29.7833     42.84     43.09    -27.65     15.62
   29.7935     43.48     42.99    -26.91     15.62
   29.8037     43.36     42.89    -26.93     15.62
   29.8138     42.62     42.79    -27.58     15.62
   29.8240     42.79     42.70    -27.31     15.62
   29.8342     42.79     42.60    -27.22     15.62
   29.8443     43.26     42.51    -26.65     15.62
   29.8545     43.82     42.42    -26.00     15.62
   29.8647     42.88     42.33    -26.85     15.62
   29.8748     43.10     42.24    -26.54     15.62
   29.8850     43.30     42.15    -26.25     15.62
   29.8952     42.68     42.06    -26.78     15.62
   29.9053     43.38     41.97    -26.00     15.62
   29.9155     42.79     41.89    -26.50     15.63
   29.9257     43.66     41.80    -25.55     15.63
   29.9358     43.16     41.72    -25.96     15.63
   29.9460     41.87     41.63    -27.17     15.63
   29.9561     41.74     41.55    -27.22     15.63
   29.9663     41.45     41.47    -27.42     15.63
   29.9765     42.57     41.39    -26.22     15.63
   29.9866     41.94     41.31    -26.77     15.63
   29.9968     42.55     41.23    -26.08     15.63
   30.0070     42.97     41.15    -25.58     15.63
   30.0171     42.38     41.07    -26.10     15.63
   30.0273     42.07     40.99    -26.33     15.63
   30.0375     42.54     40.91    -25.78     15.63
   30.0476     40.87     40.84    -27.37     15.63
   30.0578     42.22     40.76    -25.95     15.63
   30.0680     42.19     40.69    -25.90     15.64
   30.0781     42.37     40.61    -25.65     15.64
   30.0883     42.07     40.54    -25.87     15.64
   30.0984     41.92     40.46    -25.95     15.64
   30.1086     41.18     40.39    -26.62     15.64
   30.1188     41.08     40.32    -26.64     15.64
   30.1289     42.07     40.25    -25.58     15.64
   30.1391     41.84     40.17    -25.74     15.64
   30.1493     41.13     40.10    -26.38     15.64
   30.1594     42.25     40.03    -25.19     15.64
   30.1696     40.70     39.96    -26.67     15.64
   30.1798     41.32     39.89    -25.97     15.64
   30.1899     40.69     39.82    -26.53     15.64
   30.2001     40.97     39.75    -26.18     15.64
   30.2103     40.51     39.68    -26.58     15.65
   30.2204     41.39     39.61    -25.63     15.65
   30.2306     39.74     39.54    -27.21     15.65
   30.2408     40.55     39.47    -26.33     15.65
   30.2509     41.05     39.41    -25.76     15.65
   30.2611     40.26     39.34    -26.48     15.65
   30.2712     40.77     39.27    -25.91     15.65
   30.2814     40.04     39.20    -26.57     15.65
   30.2916     39.71     39.14    -26.83     15.65
   30.3017     39.43     39.07    -27.05     15.65
   30.3119     40.09     39.00    -26.32     15.65
   30.3221     39.92     38.94    -26.42     15.65
   30.3322     38.79     38.87    -27.49     15.65
   30.3424     39.75     38.81    -26.46     15.65
   30.3526     39.33     38.74    -26.82     15.66
   30.3627     39.21     38.68    -26.87     15.66
   30.3729     38.87     38.61    -27.15     15.66
   30.3831     38.40     38.55    -27.55     15.66
   30.3932     39.12     38.48    -26.77     15.66
   30.4034     38.74     38.42    -27.09     15.66
   30.4135     38.70     38.36    -27.06     15.66
   30.4237     39.60     38.29    -26.10     15.66
   30.4339     38.60     38.23    -27.04     15.66
   30.4440     37.90     38.17    -27.67     15.66
   30.4542     38.65     38.11    -26.86     15.66
   30.4644     37.09     38.04    -28.36     15.66
   30.4745     37.40     37.98    -27.99     15.66
   30.4847     37.87     37.92    -27.45     15.66
   30.4949     37.62     37.86    -27.64     15.66
   30.5050     36.59     37.80    -28.61     15.67
   30.5152     38.15     37.73    -26.99     15.67
   30.5254     37.49     37.67    -27.59     15.67
   30.5355     36.40     37.61    -28.62     15.67
   30.5457     37.05     37.55    -27.91     15.67
   30.5559     37.94     37.49    -26.96     15.67
   30.5660     37.44     37.43    -27.40     15.67
   30.5762     37.05     37.37    -27.73     15.67
   30.5863     37.34     37.31    -27.38     15.67
   30.5965     36.79     37.25    -27.87     15.67
   30.6067     36.93     37.19    -27.67     15.67
   30.6168     36.13     37.14    -28.41     15.67
   30.6270     36.35     37.08    -28.13     15.67
   30.6372     36.45     37.02    -27.97     15.67
   30.6473     36.25     36.96    -28.12     15.68
   30.6575     36.20     36.90    -28.11     15.68
   30.6677     36.39     36.84    -27.86     15.68
   30.6778     36.43     36.79    -27.76     15.68
   30.6880     36.72     36.73    -27.42     15.68
   30.6982     36.12     36.67    -27.96     15.68
   30.7083     36.93     36.62    -27.09     15.68
   30.7185     35.13     36.56    -28.83     15.68
   30.7286     34.85     36.50    -29.06     15.68
   30.7388     36.18     36.45    -27.67     15.68
   30.7490     35.39     36.39    -28.41     15.68
   30.7591     35.90     36.33    -27.84     15.68
   30.7693     35.40     36.28    -28.29     15.68
   30.7795     35.61     36.22    -28.02     15.68
   30.7896     34.96     36.17    -28.62     15.68
   30.7998     34.90     36.11    -28.62     15.69
   30.8100     35.05     36.06    -28.42     15.69
   30.8201     35.72     36.01    -27.69     15.69
   30.8303     34.77     35.95    -28.59     15.69
   30.8405     34.19     35.90    -29.11     15.69
   30.8506     35.35     35.84    -27.90     15.69
   30.8608     34.41     35.79    -28.79     15.69
   30.8710     34.89     35.74    -28.25     15.69
   30.8811     34.83     35.69    -28.26     15.69
   30.8913     35.30     35.63    -27.74     15.69
   30.9014     34.66     35.58    -28.33     15.69
   30.9116     34.45     35.53    -28.48     15.69
   30.9218     34.88     35.48    -28.00     15.69
   30.9319     34.80     35.43    -28.03     15.69
   30.9421     34.64     35.37    -28.14     15.70
   30.9523     34.36     35.32    -28.37     15.70
   30.9624     34.19     35.27    -28.49     15.70
   30.9726     34.99     35.22    -27.64     15.70
   30.9828     35.36     35.17    -27.22     15.70
   30.9929     35.01     35.12    -27.52     15.70
   31.0031     33.45     35.07    -29.03     15.70
   31.0133     34.45     35.02    -27.98     15.70
   31.0234     34.05     34.97    -28.33     15.70
   31.0336     33.47     34.92    -28.86     15.70
   31.0437     34.17     34.88    -28.11     15.70
   31.0539     33.92     34.83    -28.31     15.70
   31.0641     33.57     34.78    -28.61     15.70
   31.0742     33.16     34.73    -28.98     15.70
   31.0844     33.93     34.68    -28.16     15.71
   31.0946     33.74     34.64    -28.30     15.71
   31.1047     34.48     34.59    -27.52     15.71
   31.1149     33.68     34.54    -28.27     15.71
   31.1251     33.88     34.50    -28.02     15.71
   31.1352     33.34     34.45    -28.52     15.71
   31.1454     33.90     34.40    -27.91     15.71
   31.1556     32.95     34.36    -28.81     15.71
   31.1657     33.87     34.31    -27.85     15.71
   31.1759     33.45     34.27    -28.22     15.71
   31.1860     33.41     34.22    -28.22     15.71
   31.1962     34.09     34.18    -27.49     15.71
   31.2064     32.84     34.13    -28.70     15.71
   31.2165     34.26     34.09    -27.24     15.71
   31.2267     32.38     34.05    -29.07     15.71
   31.2369     33.01     34.00    -28.40     15.72
   31.2470     32.21     33.96    -29.15     15.72
   31.2572     33.91     33.92    -27.41     15.72
   31.2674     32.52     33.87    -28.76     15.72
   31.2775     32.79     33.83    -28.45     15.72
   31.2877     32.62     33.79    -28.57     15.72
   31.2979     32.61     33.75    -28.54     15.72
   31.3080     32.49     33.70    -28.62     15.72
   31.3182     33.54     33.66    -27.53     15.72
   31.3284     32.22     33.62    -28.81     15.72
   31.3385     33.33     33.58    -27.66     15.72
   31.3487     33.20     33.54    -27.75     15.72
   31.3588     33.39     33.50    -27.52     15.72
   31.3690     33.07     33.46    -27.80     15.72
   31.3792     33.21     33.42    -27.62     15.73
   31.3893     31.88     33.38    -28.91     15.73
   31.3995     32.49     33.34    -28.26     15.73
   31.4097     32.39     33.30    -28.32     15.73
   31.4198     33.59     33.27    -27.08     15.73
   31.4300     33.52     33.23    -27.11     15.73
   31.4402     32.22     33.19    -28.38     15.73
   31.4503     32.76     33.15    -27.80     15.73
   31.4605     31.96     33.12    -28.56     15.73
   31.4707     33.63     33.08    -26.85     15.73
   31.4808     33.37     33.04    -27.08     15.73
   31.4910     32.76     33.01    -27.65     15.73
   31.5011     32.79     32.97    -27.59     15.73
   31.5113     33.30     32.93    -27.04     15.73
   31.5215     32.37     32.90    -27.93     15.74
   31.5316     33.13     32.86    -27.14     15.74
   31.5418     33.24     32.83    -27.00     15.74
   31.5520     32.53     32.79    -27.67     15.74
   31.5621     32.98     32.76    -27.19     15.74
   31.5723     32.12     32.73    -28.01     15.74
   31.5825     32.27     32.69    -27.83     15.74
   31.5926     32.21     32.66    -27.86     15.74
   31.6028     32.19     32.63    -27.84     15.74
   31.6130     32.99     32.59    -27.01     15.74
   31.6231     33.40     32.56    -26.57     15.74
   31.6333     32.61     32.53    -27.33     15.74
   31.6435     32.36     32.50    -27.55     15.74
   31.6536     32.09     32.47    -27.78     15.74
   31.6638     32.31     32.44    -27.53     15.74
   31.6739     32.20     32.41    -27.61     15.75
   31.6841     32.38     32.38    -27.40     15.75
   31.6943     32.07     32.35    -27.68     15.75
   31.7044     32.05     32.32    -27.67     15.75
   31.7146     32.88     32.29    -26.81     15.75
   31.7248     31.80     32.26    -27.87     15.75
   31.7349     32.55     32.23    -27.09     15.75
   31.7451     33.55     32.20    -26.06     15.75
   31.7553     31.93     32.17    -27.65     15.75
   31.7654     32.10     32.15    -27.45     15.75
   31.7756     32.61     32.12    -26.92     15.75
   31.7858     31.80     32.09    -27.70     15.75
   31.7959     31.80     32.07    -27.67     15.75
   31.8061     31.35     32.04    -28.10     15.75
   31.8162     31.93     32.02    -27.49     15.76
   31.8264     32.29     31.99    -27.11     15.76
   31.8366     32.27     31.97    -27.10     15.76
   31.8467     32.49     31.94    -26.86     15.76
   31.8569     32.08     31.92    -27.24     15.76
   31.8671     33.45     31.89    -25.85     15.76
   31.8772     32.33     31.87    -26.95     15.76
   31.8874     32.30     31.85    -26.95     15.76
   31.8976     31.82     31.83    -27.41     15.76
   31.9077     31.59     31.80    -27.62     15.76
   31.9179     32.71     31.78    -26.48     15.76
   31.9281     33.23     31.76    -25.94     15.76
   31.9382     31.97     31.74    -27.18     15.76
   31.9484     31.97     31.72    -27.16     15.76
   31.9586     32.65     31.70    -26.46     15.76
   31.9687     31.52     31.68    -27.57     15.77
   31.9789     32.65     31.66    -26.42     15.77
   31.9890     32.01     31.64    -27.04     15.77
   31.9992     31.50     31.62    -27.53     15.77
   32.0094     32.06     31.61    -26.95     15.77
   32.0195     32.70     31.59    -26.29     15.77
   32.0297     32.70     31.57    -26.28     15.77
   32.0399     33.68     31.55    -25.28     15.77
   32.0500     32.57     31.54    -26.37     15.77
   32.0602     31.51     31.52    -27.42     15.77
   32.0704     32.48     31.51    -26.43     15.77
   32.0805     32.10     31.49    -26.80     15.77
   32.0907     31.78     31.48    -27.11     15.77
   32.1009     32.13     31.47    -26.74     15.77
   32.1110     32.72     31.45    -26.14     15.78
   32.1212     32.30     31.44    -26.55     15.78
   32.1313     32.66     31.43    -26.17     15.78
   32.1415     32.93     31.42    -25.89     15.78
   32.1517     32.17     31.40    -26.64     15.78
   32.1618     32.69     31.39    -26.11     15.78
   32.1720     32.27     31.38    -26.52     15.78
   32.1822     32.52     31.37    -26.26     15.78
   32.1923     32.98     31.37    -25.79     15.78
   32.2025     32.39     31.36    -26.37     15.78
   32.2127     32.60     31.35    -26.15     15.78
   32.2228     32.27     31.34    -26.48     15.78
   32.2330     31.92     31.33    -26.82     15.78
   32.2432     32.87     31.33    -25.86     15.78
   32.2533     32.39     31.32    -26.34     15.79
   32.2635     32.85     31.32    -25.87     15.79
   32.2737     32.85     31.31    -25.87     15.79
   32.2838     32.41     31.31    -26.30     15.79
   32.2940     33.39     31.30    -25.32     15.79
   32.3041     32.73     31.30    -25.98     15.79
   32.3143     33.32     31.30    -25.39     15.79
   32.3245     33.00     31.30    -25.70     15.79
   32.3346     32.99     31.30    -25.71     15.79
   32.3448     33.38     31.30    -25.32     15.79
   32.3550     33.58     31.30    -25.12     15.79
   32.3651     32.74     31.30    -25.96     15.79
   32.3753     32.78     31.30    -25.92     15.79
   32.3855     33.34     31.30    -25.37     15.79
   32.3956     32.43     31.30    -26.28     15.79
   32.4058     32.64     31.31    -26.07     15.80
   32.4160     33.32     31.31    -25.40     15.80
   32.4261     31.83     31.32    -26.89     15.80
   32.4363     32.99     31.32    -25.74     15.80
   32.4464     33.74     31.33    -24.99     15.80
   32.4566     32.85     31.33    -25.89     15.80
   32.4668     32.80     31.34    -25.95     15.80
   32.4769     33.16     31.35    -25.59     15.80
   32.4871     33.41     31.36    -25.35     15.80
   32.4973     32.90     31.37    -25.87     15.80
   32.5074     33.33     31.38    -25.45     15.80
   32.5176     32.91     31.39    -25.88     15.80
   32.5278     33.44     31.40    -25.37     15.80
   32.5379     33.65     31.41    -25.17     15.80
   32.5481     32.96     31.42    -25.87     15.81
   32.5583     33.71     31.44    -25.13     15.81
   32.5684     33.48     31.45    -25.38     15.81
   32.5786     33.01     31.47    -25.86     15.81
   32.5888     32.71     31.48    -26.18     15.81
   32.5989     33.03     31.50    -25.88     15.81
   32.6091     33.44     31.52    -25.48     15.81
   32.6192     33.03     31.54    -25.91     15.81
   32.6294     32.60     31.55    -26.36     15.81
   32.6396     32.34     31.57    -26.64     15.81
   32.6497     32.68     31.59    -26.32     15.81
   32.6599     33.03     31.61    -25.99     15.81
   32.6701     33.73     31.64    -25.31     15.81
   32.6802     32.70     31.66    -26.36     15.81
   32.6904     32.43     31.68    -26.66     15.81
   32.7006     32.74     31.70    -26.37     15.82
   32.7107     32.80     31.73    -26.33     15.82
   32.7209     33.68     31.75    -25.48     15.82
   32.7311     32.84     31.78    -26.35     15.82
   32.7412     32.78     31.81    -26.43     15.82
   32.7514     32.67     31.83    -26.57     15.82
   32.7615     32.58     31.86    -26.69     15.82
   32.7717     32.60     31.89    -26.70     15.82
   32.7819     34.04     31.92    -25.28     15.82
   32.7920     32.78     31.95    -26.57     15.82
   32.8022     32.57     31.98    -26.81     15.82
   32.8124     32.86     32.01    -26.55     15.82
   32.8225     32.39     32.04    -27.06     15.82
   32.8327     32.24     32.07    -27.24     15.82
   32.8429     33.77     32.10    -25.74     15.83
   32.8530     32.40     32.14    -27.14     15.83
   32.8632     32.27     32.17    -27.31     15.83
   32.8734     33.16     32.20    -26.45     15.83
   32.8835     32.51     32.24    -27.13     15.83
   32.8937     32.63     32.27    -27.05     15.83
   32.9039     33.00     32.31    -26.71     15.83
   32.9140     32.93     32.34    -26.82     15.83
   32.9242     32.64     32.38    -27.14     15.83
   32.9343     33.91     32.41    -25.91     15.83
   32.9445     32.40     32.45    -27.45     15.83
   32.9547     32.96     32.48    -26.93     15.83
   32.9648     32.07     32.52    -27.85     15.83
   32.9750     33.29     32.55    -26.67     15.83
   32.9852     32.49     32.59    -27.51     15.84
   32.9953     33.06     32.62    -26.97     15.84
   33.0055     33.73     32.66    -26.34     15.84
   33.0157     33.29     32.70    -26.81     15.84
   33.0258     32.38     32.73    -27.76     15.84
   33.0360     32.93     32.76    -27.24     15.84
   33.0462     32.64     32.80    -27.57     15.84
   33.0563     31.73     32.83    -28.51     15.84
   33.0665     32.63     32.87    -27.64     15.84
   33.0766     33.80     32.90    -26.50     15.84
   33.0868     33.71     32.93    -26.63     15.84
   33.0970     33.21     32.96    -27.16     15.84
   33.1071     33.26     32.99    -27.14     15.84
   33.1173     32.49     33.02    -27.94     15.84
   33.1275     33.30     33.05    -27.16     15.84
   33.1376     32.34     33.08    -28.14     15.85
   33.1478     33.63     33.10    -26.88     15.85
   33.1580     33.26     33.13    -27.27     15.85
   33.1681     32.61     33.15    -27.95     15.85
   33.1783     33.38     33.17    -27.20     15.85
   33.1885     33.74     33.19    -26.86     15.85
   33.1986     33.53     33.21    -27.09     15.85
   33.2088     32.80     33.23    -27.84     15.85
   33.2189     33.48     33.25    -27.17     15.85
   33.2291     33.61     33.26    -27.06     15.85
   33.2393     32.59     33.27    -28.09     15.85
   33.2494     34.07     33.28    -26.62     15.85
   33.2596     33.39     33.29    -27.31     15.85
   33.2698     33.03     33.30    -27.68     15.85
   33.2799     33.11     33.30    -27.60     15.86
   33.2901     33.48     33.31    -27.23     15.86
   33.3003     33.47     33.31    -27.24     15.86
   33.3104     33.36     33.31    -27.35     15.86
   33.3206     33.52     33.30    -27.19     15.86
   33.3308     33.80     33.30    -26.90     15.86
   33.3409     32.15     33.29    -28.54     15.86
   33.3511     32.69     33.28    -27.99     15.86
   33.3613     33.18     33.26    -27.49     15.86
   33.3714     33.80     33.25    -26.85     15.86
   33.3816     33.44     33.23    -27.19     15.86
   33.3917     33.54     33.21    -27.07     15.86
   33.4019     33.41     33.19    -27.18     15.86
   33.4121     32.96     33.16    -27.61     15.86
   33.4222     32.47     33.13    -28.07     15.86
   33.4324     33.85     33.10    -26.66     15.87
   33.4426     33.11     33.07    -27.37     15.87
   33.4527     33.29     33.04    -27.15     15.87
   33.4629     33.80     33.00    -26.61     15.87
   33.4731     33.46     32.96    -26.91     15.87
   33.4832     33.16     32.92    -27.17     15.87
   33.4934     33.49     32.88    -26.79     15.87
   33.5036     32.58     32.83    -27.66     15.87
   33.5137     31.78     32.78    -28.41     15.87
   33.5239     33.05     32.73    -27.09     15.87
   33.5340     32.88     32.68    -27.21     15.87
   33.5442     32.17     32.63    -27.87     15.87
   33.5544     32.35     32.58    -27.63     15.87
   33.5645     31.89     32.52    -28.04     15.87
   33.5747     32.15     32.46    -27.72     15.88
   33.5849     32.29     32.40    -27.52     15.88
   33.5950     31.85     32.34    -27.90     15.88
   33.6052     32.64     32.28    -27.05     15.88
   33.6154     32.07     32.22    -27.55     15.88
   33.6255     31.84     32.15    -27.72     15.88
   33.6357     31.46     32.09    -28.03     15.88
   33.6459     31.38     32.02    -28.05     15.88
   33.6560     31.77     31.95    -27.59     15.88
   33.6662     32.02     31.88    -27.27     15.88
   33.6764     31.71     31.81    -27.51     15.88
   33.6865     31.71     31.74    -27.44     15.88
   33.6967     31.20     31.67    -27.88     15.88
   33.7068     31.60     31.60    -27.41     15.88
   33.7170     31.65     31.53    -27.28     15.89
   33.7272     30.64     31.46    -28.22     15.89
   33.7373     30.91     31.38    -27.88     15.89
   33.7475     30.66     31.31    -28.05     15.89
   33.7577     31.56     31.23    -27.08     15.89
   33.7678     31.29     31.16    -27.28     15.89
   33.7780     30.35     31.09    -28.14     15.89
   33.7882     29.79     31.01    -28.63     15.89
   33.7983     30.47     30.94    -27.87     15.89
   33.8085     30.04     30.86    -28.23     15.89
   33.8187     30.46     30.79    -27.73     15.89
   33.8288     30.08     30.72    -28.04     15.89
   33.8390     30.12     30.64    -27.93     15.89
   33.8491     29.67     30.57    -28.30     15.89
   33.8593     29.55     30.49    -28.35     15.89
   33.8695     29.18     30.42    -28.65     15.90
   33.8796     29.40     30.35    -28.35     15.90
   33.8898     29.71     30.27    -27.97     15.90
   33.9000     29.37     30.20    -28.24     15.90
   33.9101     29.71     30.13    -27.83     15.90
   33.9203     29.53     30.06    -27.93     15.90
   33.9305     28.92     29.99    -28.47     15.90
   33.9406     28.87     29.91    -28.45     15.90
   33.9508     29.09     29.84    -28.16     15.90
   33.9610     28.58     29.77    -28.60     15.90
   33.9711     28.34     29.71    -28.77     15.90
   33.9813     28.18     29.64    -28.86     15.90
   33.9915     28.65     29.57    -28.32     15.90
   34.0016     28.15     29.50    -28.76     15.90
   34.0118     27.68     29.43    -29.16     15.91
   34.0219     28.18     29.37    -28.59     15.91
   34.0321     28.52     29.30    -28.19     15.91
   34.0423     27.91     29.23    -28.73     15.91
   34.0524     27.52     29.17    -29.06     15.91
   34.0626     28.04     29.11    -28.47     15.91
   34.0728     27.71     29.04    -28.74     15.91
   34.0829     27.27     28.98    -29.12     15.91
   34.0931     28.30     28.92    -28.02     15.91
   34.1033     27.70     28.86    -28.56     15.91
   34.1134     27.44     28.80    -28.76     15.91
   34.1236     27.80     28.74    -28.34     15.91
   34.1338     27.85     28.68    -28.23     15.91
   34.1439     26.87     28.62    -29.15     15.91
   34.1541     27.50     28.56    -28.46     15.92
   34.1642     27.32     28.50    -28.59     15.92
   34.1744     27.26     28.44    -28.59     15.92
   34.1846     27.21     28.39    -28.58     15.92
   34.1947     26.98     28.33    -28.76     15.92
   34.2049     26.93     28.28    -28.75     15.92
   34.2151     27.29     28.22    -28.34     15.92
   34.2252     26.95     28.17    -28.62     15.92
   34.2354     26.39     28.12    -29.13     15.92
   34.2456     26.49     28.06    -28.98     15.92
   34.2557     27.67     28.01    -27.75     15.92
   34.2659     26.68     27.96    -28.69     15.92
   34.2761     26.72     27.91    -28.59     15.92
   34.2862     27.30     27.86    -27.97     15.92
   34.2964     26.65     27.81    -28.57     15.92
   34.3066     26.33     27.76    -28.84     15.93
   34.3167     26.51     27.71    -28.61     15.93
   34.3269     26.88     27.66    -28.19     15.93
   34.3370     26.54     27.62    -28.48     15.93
   34.3472     26.79     27.57    -28.19     15.93
   34.3574     26.28     27.53    -28.65     15.93
   34.3675     26.04     27.48    -28.85     15.93
   34.3777     27.35     27.44    -27.49     15.93
   34.3879     26.10     27.39    -28.70     15.93
   34.3980     25.96     27.35    -28.79     15.93
   34.4082     26.34     27.30    -28.37     15.93
   34.4184     26.67     27.26    -28.00     15.93
   34.4285     26.69     27.22    -27.94     15.93
   34.4387     25.40     27.18    -29.18     15.93
   34.4489     26.37     27.14    -28.17     15.94
   34.4590     26.51     27.10    -27.99     15.94
   34.4692     26.82     27.06    -27.64     15.94
   34.4793     25.47     27.02    -28.95     15.94
   34.4895     26.13     26.98    -28.25     15.94
   34.4997     26.34     26.94    -28.01     15.94
   34.5098     26.07     26.90    -28.24     15.94
   34.5200     25.54     26.86    -28.73     15.94
   34.5302     25.79     26.83    -28.44     15.94
   34.5403     26.17     26.79    -28.03     15.94
   34.5505     25.97     26.75    -28.19     15.94
   34.5607     26.37     26.72    -27.75     15.94
   34.5708     26.09     26.68    -28.00     15.94
   34.5810     26.26     26.65    -27.79     15.94
   34.5912     26.25     26.61    -27.77     15.94
   34.6013     26.16     26.58    -27.82     15.95
   34.6115     25.46     26.54    -28.49     15.95
   34.6217     26.34     26.51    -27.58     15.95
   34.6318     26.17     26.48    -27.71     15.95
   34.6420     25.51     26.45    -28.34     15.95
   34.6521     25.66     26.41    -28.16     15.95
   34.6623     26.10     26.38    -27.69     15.95
   34.6725     25.42     26.35    -28.34     15.95
   34.6826     25.84     26.32    -27.89     15.95
   34.6928     26.05     26.29    -27.64     15.95
   34.7030     26.36     26.26    -27.30     15.95
   34.7131     25.88     26.23    -27.75     15.95
   34.7233     24.85     26.20    -28.75     15.95
   34.7335     25.35     26.17    -28.22     15.95
   34.7436     25.66     26.14    -27.89     15.96
   34.7538     26.02     26.11    -27.50     15.96
   34.7640     25.50     26.08    -27.99     15.96
   34.7741     24.96     26.05    -28.50     15.96
   34.7843     25.09     26.03    -28.34     15.96
   34.7944     25.68     26.00    -27.73     15.96
   34.8046     24.88     25.97    -28.50     15.96
   34.8148     25.58     25.95    -27.77     15.96
   34.8249     25.18     25.92    -28.15     15.96
   34.8351     25.40     25.89    -27.90     15.96
   34.8453     25.54     25.87    -27.73     15.96
   34.8554     25.23     25.84    -28.02     15.96
   34.8656     24.98     25.82    -28.24     15.96
   34.8758     24.85     25.79    -28.35     15.96
   34.8859     25.32     25.77    -27.85     15.97
   34.8961     25.35     25.74    -27.80     15.97
   34.9063     25.90     25.72    -27.22     15.97
   34.9164     25.09     25.69    -28.01     15.97
   34.9266     25.85     25.67    -27.22     15.97
   34.9367     25.63     25.64    -27.42     15.97
   34.9469     25.69     25.62    -27.34     15.97
   34.9571     25.29     25.60    -27.71     15.97
   34.9672     24.85     25.57    -28.13     15.97
   34.9774     25.15     25.55    -27.81     15.97
   34.9876     24.84     25.53    -28.09     15.97
   34.9977     25.07     25.51    -27.84     15.97
   35.0079     24.92     25.48    -27.97     15.97
   35.0181     24.73     25.46    -28.14     15.97
   35.0282     25.47     25.44    -27.38     15.97
   35.0384     24.73     25.42    -28.09     15.98
   35.0486     24.85     25.40    -27.95     15.98
   35.0587     24.79     25.38    -27.99     15.98
   35.0689     25.10     25.35    -27.66     15.98
   35.0791     25.26     25.33    -27.48     15.98
   35.0892     25.18     25.31    -27.54     15.98
   35.0994     25.21     25.29    -27.49     15.98
   35.1095     25.35     25.27    -27.33     15.98
   35.1197     24.94     25.25    -27.72     15.98
   35.1299     24.83     25.23    -27.81     15.98
   35.1400     25.78     25.21    -26.84     15.98
   35.1502     24.80     25.19    -27.80     15.98
   35.1604     25.24     25.17    -27.34     15.98
   35.1705     24.95     25.15    -27.61     15.98
   35.1807     25.10     25.14    -27.44     15.99
   35.1909     24.95     25.12    -27.57     15.99
   35.2010     25.45     25.10    -27.05     15.99
   35.2112     23.98     25.08    -28.50     15.99
   35.2214     24.12     25.06    -28.35     15.99
   35.2315     25.36     25.04    -27.09     15.99
   35.2417     25.32     25.02    -27.11     15.99
   35.2518     25.04     25.01    -27.37     15.99
   35.2620     25.21     24.99    -27.18     15.99
   35.2722     24.70     24.97    -27.68     15.99
   35.2823     25.80     24.95    -26.56     15.99
   35.2925     24.78     24.93    -27.56     15.99
   35.3027     24.52     24.92    -27.80     15.99
   35.3128     24.35     24.90    -27.96     15.99
   35.3230     24.52     24.88    -27.77     15.99
   35.3332     24.82     24.86    -27.45     16.00
   35.3433     24.42     24.85    -27.83     16.00
   35.3535     24.79     24.83    -27.45     16.00
   35.3637     24.48     24.81    -27.74     16.00
   35.3738     24.23     24.80    -27.97     16.00
   35.3840     24.99     24.78    -27.20     16.00
   35.3942     24.46     24.76    -27.71     16.00
   35.4043     24.49     24.75    -27.66     16.00
   35.4145     24.16     24.73    -27.98     16.00
   35.4246     24.57     24.72    -27.55     16.00
   35.4348     25.39     24.70    -26.72     16.00
   35.4450     25.35     24.68    -26.74     16.00
   35.4551     24.65     24.67    -27.42     16.00
   35.4653     24.46     24.65    -27.60     16.00
   35.4755     24.46     24.64    -27.58     16.01
   35.4856     24.01     24.62    -28.02     16.01
   35.4958     23.89     24.61    -28.12     16.01
   35.5060     24.99     24.59    -27.01     16.01
   35.5161     24.99     24.58    -26.99     16.01
   35.5263     23.87     24.56    -28.10     16.01
   35.5365     24.45     24.55    -27.50     16.01
   35.5466     24.38     24.53    -27.56     16.01
   35.5568     24.89     24.52    -27.03     16.01
   35.5669     24.30     24.50    -27.61     16.01
   35.5771     24.46     24.49    -27.43     16.01
   35.5873     23.96     24.47    -27.92     16.01
   35.5974     23.91     24.46    -27.95     16.01
   35.6076     25.30     24.44    -26.55     16.01
   35.6178     24.54     24.43    -27.29     16.02
   35.6279     24.26     24.41    -27.56     16.02
   35.6381     24.70     24.40    -27.11     16.02
   35.6483     24.08     24.39    -27.71     16.02
   35.6584     24.75     24.37    -27.03     16.02
   35.6686     24.65     24.36    -27.11     16.02
   35.6788     24.35     24.34    -27.40     16.02
   35.6889     23.62     24.33    -28.12     16.02
   35.6991     23.69     24.32    -28.03     16.02
   35.7093     23.50     24.30    -28.21     16.02
   35.7194     24.54     24.29    -27.16     16.02
   35.7296     24.02     24.28    -27.66     16.02
   35.7397     23.62     24.26    -28.05     16.02
   35.7499     23.51     24.25    -28.15     16.02
   35.7601     24.98     24.24    -26.66     16.02
   35.7702     23.92     24.22    -27.71     16.03
   35.7804     23.90     24.21    -27.72     16.03
   35.7906     25.02     24.20    -26.58     16.03
   35.8007     23.94     24.18    -27.65     16.03
   35.8109     24.20     24.17    -27.38     16.03
   35.8211     24.24     24.16    -27.32     16.03
   35.8312     24.54     24.14    -27.01     16.03
   35.8414     24.09     24.13    -27.45     16.03
   35.8516     24.57     24.12    -26.95     16.03
   35.8617     24.05     24.11    -27.46     16.03
   35.8719     24.25     24.09    -27.25     16.03
   35.8820     24.26     24.08    -27.23     16.03
   35.8922     24.14     24.07    -27.33     16.03
   35.9024     24.10     24.06    -27.36     16.03
   35.9125     24.43     24.04    -27.02     16.04
   35.9227     24.30     24.03    -27.14     16.04
   35.9329     24.35     24.02    -27.08     16.04
   35.9430     24.32     24.01    -27.09     16.04
   35.9532     24.53     23.99    -26.87     16.04
   35.9634     24.37     23.98    -27.02     16.04
   35.9735     23.95     23.97    -27.43     16.04
   35.9837     24.24     23.96    -27.12     16.04
   35.9939     24.36     23.95    -26.99     16.04
   36.0040     24.65     23.93    -26.69     16.04
   36.0142     24.21     23.92    -27.12     16.04
   36.0244     24.25     23.91    -27.07     16.04
   36.0345     23.61     23.90    -27.70     16.04
   36.0447     23.62     23.89    -27.67     16.04
   36.0548     24.75     23.88    -26.53     16.04
   36.0650     25.01     23.86    -26.26     16.05
   36.0752     24.13     23.85    -27.13     16.05
   36.0853     24.32     23.84    -26.93     16.05
   36.0955     23.81     23.83    -27.43     16.05
   36.1057     24.21     23.82    -27.01     16.05
   36.1158     24.73     23.81    -26.48     16.05
   36.1260     24.93     23.80    -26.27     16.05
   36.1362     24.38     23.78    -26.81     16.05
   36.1463     23.84     23.77    -27.34     16.05
