 => TITLE: 
 => Data file name: C:\Users\stefano\Nextcloud2\projects\programming\python\xrd-winplotr\folder\G110\G110--5-40-0.01-1000ms.xy
 => Instrm        :    1
 => Lambda(1&2)   :   1.54060  1.54060
 => Numb.of.points:      2915
 => Numb.of.peaks :         8
    2Theta     Yobs     Ycalc  Yobs-Ycal    Backg    Bragg     Posr  Intensity   FWHM    Eta
    6.2627     23.32     23.72    -28.62     18.12   18.6700     -3.23     170.43  0.7964  0.5000
    6.2729     23.79     23.73    -28.16     18.12   20.4743     -3.23     110.59  1.5705  0.5000
    6.2830     23.43     23.74    -28.53     18.12   22.5101     -3.23     133.49  1.1256  0.5000
    6.2932     23.14     23.75    -28.83     18.11   28.5505     -3.23      46.79  1.0969  0.5000
    6.3034     22.57     23.76    -29.41     18.11   30.0647     -3.23      24.35  2.1575  0.5000
    6.3135     23.15     23.77    -28.84     18.11   33.4325     -3.23      40.01  3.1147  0.5000
    6.3237     22.66     23.78    -29.34     18.11   17.4812     -3.23      90.82  2.1147  0.5000
    6.3338     23.16     23.79    -28.85     18.11   20.3269     -3.23     989.19 12.5037  0.5000
    6.3440     23.97     23.80    -28.05     18.11
    6.3542     23.28     23.81    -28.75     18.11
    6.3643     22.89     23.82    -29.15     18.11
    6.3745     23.23     23.83    -28.82     18.10
    6.3847     22.90     23.84    -29.16     18.10
    6.3948     22.51     23.85    -29.56     18.10
    6.4050     23.77     23.86    -28.31     18.10
    6.4152     23.41     23.87    -28.68     18.10
    6.4253     23.03     23.88    -29.07     18.10
    6.4355     23.00     23.89    -29.11     18.10
    6.4457     23.35     23.90    -28.78     18.10
    6.4558     23.45     23.91    -28.69     18.09
    6.4660     23.12     23.92    -29.03     18.09
    6.4762     22.98     23.93    -29.18     18.09
    6.4863     23.38     23.95    -28.79     18.09
    6.4965     23.34     23.96    -28.84     18.09
    6.5066     23.75     23.97    -28.44     18.09
    6.5168     23.45     23.98    -28.75     18.09
    6.5270     23.17     23.99    -29.04     18.08
    6.5371     23.08     24.00    -29.14     18.08
    6.5473     22.80     24.01    -29.43     18.08
    6.5575     23.36     24.02    -28.88     18.08
    6.5676     21.76     24.03    -30.49     18.08
    6.5778     23.21     24.04    -29.06     18.08
    6.5880     22.71     24.05    -29.57     18.08
    6.5981     23.18     24.07    -29.11     18.08
    6.6083     22.59     24.08    -29.71     18.07
    6.6185     23.41     24.09    -28.90     18.07
    6.6286     23.01     24.10    -29.31     18.07
    6.6388     23.46     24.11    -28.87     18.07
    6.6489     23.67     24.12    -28.67     18.07
    6.6591     23.79     24.13    -28.56     18.07
    6.6693     23.27     24.14    -29.10     18.07
    6.6794     23.60     24.15    -28.78     18.07
    6.6896     22.80     24.17    -29.59     18.06
    6.6998     23.59     24.18    -28.81     18.06
    6.7099     23.59     24.19    -28.82     18.06
    6.7201     22.59     24.20    -29.83     18.06
    6.7303     23.66     24.21    -28.77     18.06
    6.7404     22.66     24.22    -29.79     18.06
    6.7506     22.47     24.24    -29.99     18.06
    6.7608     23.46     24.25    -29.01     18.06
    6.7709     23.60     24.26    -28.88     18.05
    6.7811     23.57     24.27    -28.92     18.05
    6.7913     22.84     24.28    -29.66     18.05
    6.8014     23.08     24.29    -29.44     18.05
    6.8116     23.40     24.31    -29.13     18.05
    6.8217     23.15     24.32    -29.39     18.05
    6.8319     23.43     24.33    -29.12     18.05
    6.8421     23.67     24.34    -28.89     18.05
    6.8522     22.57     24.35    -30.01     18.04
    6.8624     24.00     24.37    -28.59     18.04
    6.8726     22.99     24.38    -29.61     18.04
    6.8827     23.12     24.39    -29.49     18.04
    6.8929     23.90     24.40    -28.72     18.04
    6.9031     22.65     24.42    -29.99     18.04
    6.9132     24.29     24.43    -28.36     18.04
    6.9234     24.07     24.44    -28.59     18.04
    6.9336     22.24     24.45    -30.43     18.03
    6.9437     23.03     24.46    -29.66     18.03
    6.9539     23.30     24.48    -29.40     18.03
    6.9640     23.65     24.49    -29.06     18.03
    6.9742     23.94     24.50    -28.78     18.03
    6.9844     23.76     24.51    -28.98     18.03
    6.9945     23.49     24.53    -29.26     18.03
    7.0047     23.61     24.54    -29.15     18.02
    7.0149     23.13     24.55    -29.64     18.02
    7.0250     23.76     24.57    -29.03     18.02
    7.0352     23.93     24.58    -28.87     18.02
    7.0454     24.56     24.59    -28.25     18.02
    7.0555     23.90     24.60    -28.93     18.02
    7.0657     23.99     24.62    -28.85     18.02
    7.0759     23.80     24.63    -29.05     18.02
    7.0860     23.62     24.64    -29.24     18.01
    7.0962     24.05     24.66    -28.83     18.01
    7.1064     23.28     24.67    -29.61     18.01
    7.1165     23.46     24.68    -29.44     18.01
    7.1267     23.81     24.69    -29.11     18.01
    7.1368     23.83     24.71    -29.10     18.01
    7.1470     23.75     24.72    -29.19     18.01
    7.1572     24.29     24.73    -28.67     18.01
    7.1673     23.67     24.75    -29.30     18.00
    7.1775     23.60     24.76    -29.38     18.00
    7.1877     23.73     24.77    -29.27     18.00
    7.1978     23.43     24.79    -29.58     18.00
    7.2080     23.58     24.80    -29.44     18.00
    7.2182     24.10     24.82    -28.94     18.00
    7.2283     24.15     24.83    -28.90     18.00
    7.2385     23.29     24.84    -29.77     18.00
    7.2487     24.35     24.86    -28.73     17.99
    7.2588     23.85     24.87    -29.24     17.99
    7.2690     23.58     24.88    -29.53     17.99
    7.2791     24.23     24.90    -28.89     17.99
    7.2893     23.85     24.91    -29.28     17.99
    7.2995     24.32     24.93    -28.83     17.99
    7.3096     24.64     24.94    -28.52     17.99
    7.3198     24.09     24.95    -29.09     17.99
    7.3300     23.55     24.97    -29.64     17.98
    7.3401     24.98     24.98    -28.22     17.98
    7.3503     24.16     25.00    -29.06     17.98
    7.3605     24.53     25.01    -28.70     17.98
    7.3706     23.41     25.02    -29.84     17.98
    7.3808     24.31     25.04    -28.95     17.98
    7.3910     24.02     25.05    -29.26     17.98
    7.4011     23.81     25.07    -29.48     17.98
    7.4113     24.54     25.08    -28.76     17.97
    7.4215     24.65     25.10    -28.67     17.97
    7.4316     24.94     25.11    -28.39     17.97
    7.4418     24.54     25.13    -28.81     17.97
    7.4519     24.26     25.14    -29.10     17.97
    7.4621     24.75     25.16    -28.63     17.97
    7.4723     24.30     25.17    -29.09     17.97
    7.4824     24.60     25.18    -28.81     17.96
    7.4926     24.66     25.20    -28.76     17.96
    7.5028     25.08     25.21    -28.36     17.96
    7.5129     24.99     25.23    -28.46     17.96
    7.5231     24.67     25.24    -28.80     17.96
    7.5333     24.32     25.26    -29.16     17.96
    7.5434     24.21     25.27    -29.29     17.96
    7.5536     24.99     25.29    -28.52     17.96
    7.5638     25.08     25.30    -28.45     17.95
    7.5739     24.48     25.32    -29.06     17.95
    7.5841     25.97     25.34    -27.59     17.95
    7.5942     24.87     25.35    -28.70     17.95
    7.6044     24.24     25.37    -29.35     17.95
    7.6146     25.04     25.38    -28.56     17.95
    7.6247     24.95     25.40    -28.67     17.95
    7.6349     24.25     25.41    -29.38     17.95
    7.6451     24.63     25.43    -29.02     17.94
    7.6552     24.43     25.44    -29.24     17.94
    7.6654     24.28     25.46    -29.40     17.94
    7.6756     25.02     25.47    -28.68     17.94
    7.6857     24.82     25.49    -28.89     17.94
    7.6959     24.46     25.51    -29.27     17.94
    7.7061     24.72     25.52    -29.02     17.94
    7.7162     25.55     25.54    -28.21     17.94
    7.7264     24.27     25.55    -29.51     17.93
    7.7365     25.60     25.57    -28.19     17.93
    7.7467     24.95     25.59    -28.86     17.93
    7.7569     25.21     25.60    -28.61     17.93
    7.7670     25.04     25.62    -28.80     17.93
    7.7772     25.31     25.63    -28.55     17.93
    7.7874     24.64     25.65    -29.23     17.93
    7.7975     24.83     25.67    -29.06     17.93
    7.8077     25.73     25.68    -28.18     17.92
    7.8179     25.45     25.70    -28.47     17.92
    7.8280     24.49     25.72    -29.45     17.92
    7.8382     25.24     25.73    -28.72     17.92
    7.8484     24.96     25.75    -29.01     17.92
    7.8585     25.26     25.77    -28.73     17.92
    7.8687     25.69     25.78    -28.32     17.92
    7.8789     25.13     25.80    -28.89     17.91
    7.8890     24.63     25.82    -29.41     17.91
    7.8992     25.47     25.83    -28.59     17.91
    7.9093     25.97     25.85    -28.10     17.91
    7.9195     25.85     25.87    -28.24     17.91
    7.9297     25.84     25.88    -28.27     17.91
    7.9398     25.43     25.90    -28.69     17.91
    7.9500     25.23     25.92    -28.91     17.91
    7.9602     26.21     25.94    -27.95     17.90
    7.9703     25.26     25.95    -28.92     17.90
    7.9805     25.14     25.97    -29.05     17.90
    7.9907     26.83     25.99    -27.38     17.90
    8.0008     26.15     26.01    -28.08     17.90
    8.0110     25.86     26.02    -28.38     17.90
    8.0212     25.90     26.04    -28.36     17.90
    8.0313     26.79     26.06    -27.49     17.90
    8.0415     25.56     26.08    -28.74     17.89
    8.0516     25.83     26.09    -28.49     17.89
    8.0618     25.93     26.11    -28.40     17.89
    8.0720     26.23     26.13    -28.12     17.89
    8.0821     27.07     26.15    -27.30     17.89
    8.0923     25.65     26.16    -28.74     17.89
    8.1025     25.71     26.18    -28.69     17.89
    8.1126     26.55     26.20    -27.87     17.89
    8.1228     25.62     26.22    -28.82     17.88
    8.1330     26.27     26.24    -28.19     17.88
    8.1431     25.93     26.25    -28.55     17.88
    8.1533     26.11     26.27    -28.38     17.88
    8.1635     25.56     26.29    -28.95     17.88
    8.1736     25.95     26.31    -28.58     17.88
    8.1838     26.13     26.33    -28.42     17.88
    8.1940     26.67     26.35    -27.90     17.88
    8.2041     26.24     26.36    -28.35     17.87
    8.2143     26.70     26.38    -27.91     17.87
    8.2244     27.26     26.40    -27.36     17.87
    8.2346     26.81     26.42    -27.83     17.87
    8.2448     26.13     26.44    -28.53     17.87
    8.2549     26.85     26.46    -27.83     17.87
    8.2651     26.51     26.48    -28.19     17.87
    8.2753     25.79     26.50    -28.93     17.87
    8.2854     26.55     26.52    -28.19     17.86
    8.2956     26.26     26.53    -28.50     17.86
    8.3058     26.87     26.55    -27.91     17.86
    8.3159     25.85     26.57    -28.94     17.86
    8.3261     26.99     26.59    -27.82     17.86
    8.3363     26.71     26.61    -28.12     17.86
    8.3464     26.52     26.63    -28.33     17.86
    8.3566     27.10     26.65    -27.77     17.85
    8.3667     26.33     26.67    -28.56     17.85
    8.3769     26.35     26.69    -28.56     17.85
    8.3871     26.68     26.71    -28.25     17.85
    8.3972     26.37     26.73    -28.58     17.85
    8.4074     26.47     26.75    -28.50     17.85
    8.4176     27.10     26.77    -27.89     17.85
    8.4277     26.38     26.79    -28.63     17.85
    8.4379     26.83     26.81    -28.20     17.84
    8.4481     28.05     26.83    -27.00     17.84
    8.4582     26.23     26.85    -28.84     17.84
    8.4684     27.22     26.87    -27.87     17.84
    8.4786     27.45     26.89    -27.66     17.84
    8.4887     26.52     26.91    -28.61     17.84
    8.4989     27.06     26.93    -28.09     17.84
    8.5091     27.37     26.95    -27.80     17.84
    8.5192     26.76     26.97    -28.43     17.83
    8.5294     27.67     26.99    -27.54     17.83
    8.5395     27.58     27.01    -27.65     17.83
    8.5497     26.64     27.03    -28.61     17.83
    8.5599     27.57     27.05    -27.70     17.83
    8.5700     26.77     27.07    -28.52     17.83
    8.5802     27.02     27.09    -28.29     17.83
    8.5904     27.98     27.11    -27.35     17.83
    8.6005     27.67     27.13    -27.69     17.82
    8.6107     27.40     27.15    -27.98     17.82
    8.6209     27.88     27.18    -27.52     17.82
    8.6310     27.31     27.20    -28.11     17.82
    8.6412     27.05     27.22    -28.39     17.82
    8.6514     27.22     27.24    -28.24     17.82
    8.6615     27.54     27.26    -27.94     17.82
    8.6717     27.60     27.28    -27.90     17.82
    8.6818     28.15     27.30    -27.37     17.81
    8.6920     27.24     27.32    -28.31     17.81
    8.7022     27.63     27.35    -27.94     17.81
    8.7123     28.09     27.37    -27.50     17.81
    8.7225     27.59     27.39    -28.02     17.81
    8.7327     27.75     27.41    -27.88     17.81
    8.7428     27.10     27.43    -28.55     17.81
    8.7530     27.43     27.45    -28.25     17.81
    8.7632     28.12     27.48    -27.58     17.80
    8.7733     27.91     27.50    -27.81     17.80
    8.7835     28.43     27.52    -27.31     17.80
    8.7937     27.65     27.54    -28.11     17.80
    8.8038     27.91     27.56    -27.88     17.80
    8.8140     27.81     27.59    -28.00     17.80
    8.8242     27.69     27.61    -28.14     17.80
    8.8343     28.10     27.63    -27.75     17.79
    8.8445     29.26     27.65    -26.62     17.79
    8.8546     27.74     27.68    -28.16     17.79
    8.8648     28.12     27.70    -27.80     17.79
    8.8750     28.46     27.72    -27.48     17.79
    8.8851     26.89     27.74    -29.08     17.79
    8.8953     28.28     27.77    -27.71     17.79
    8.9055     28.25     27.79    -27.76     17.79
    8.9156     27.30     27.81    -28.73     17.78
    8.9258     28.38     27.83    -27.68     17.78
    8.9360     27.76     27.86    -28.32     17.78
    8.9461     27.63     27.88    -28.47     17.78
    8.9563     28.03     27.90    -28.10     17.78
    8.9665     28.03     27.93    -28.12     17.78
    8.9766     27.88     27.95    -28.29     17.78
    8.9868     28.47     27.97    -27.73     17.78
    8.9969     28.04     28.00    -28.18     17.77
    9.0071     28.46     28.02    -27.78     17.77
    9.0173     28.03     28.04    -28.24     17.77
    9.0274     28.57     28.07    -27.72     17.77
    9.0376     28.49     28.09    -27.82     17.77
    9.0478     29.70     28.12    -26.64     17.77
    9.0579     29.12     28.14    -27.24     17.77
    9.0681     27.35     28.16    -29.04     17.77
    9.0783     28.25     28.19    -28.16     17.76
    9.0884     28.95     28.21    -27.48     17.76
    9.0986     28.96     28.24    -27.50     17.76
    9.1088     28.86     28.26    -27.62     17.76
    9.1189     29.11     28.28    -27.40     17.76
    9.1291     28.80     28.31    -27.73     17.76
    9.1393     29.79     28.33    -26.76     17.76
    9.1494     28.92     28.36    -27.66     17.76
    9.1596     28.35     28.38    -28.25     17.75
    9.1697     29.52     28.41    -27.11     17.75
    9.1799     28.71     28.43    -27.94     17.75
    9.1901     28.02     28.46    -28.66     17.75
    9.2002     29.21     28.48    -27.49     17.75
    9.2104     28.91     28.50    -27.82     17.75
    9.2206     29.21     28.53    -27.54     17.75
    9.2307     30.04     28.55    -26.74     17.74
    9.2409     29.27     28.58    -27.53     17.74
    9.2511     28.39     28.60    -28.44     17.74
    9.2612     29.15     28.63    -27.70     17.74
    9.2714     29.73     28.66    -27.15     17.74
    9.2816     28.58     28.68    -28.32     17.74
    9.2917     28.97     28.71    -27.96     17.74
    9.3019     29.65     28.73    -27.30     17.74
    9.3120     28.69     28.76    -28.29     17.73
    9.3222     29.46     28.78    -27.54     17.73
    9.3324     29.43     28.81    -27.60     17.73
    9.3425     29.21     28.83    -27.85     17.73
    9.3527     28.66     28.86    -28.42     17.73
    9.3629     29.82     28.89    -27.29     17.73
    9.3730     29.71     28.91    -27.42     17.73
    9.3832     29.89     28.94    -27.27     17.73
    9.3934     29.50     28.96    -27.69     17.72
    9.4035     29.34     28.99    -27.87     17.72
    9.4137     30.27     29.02    -26.97     17.72
    9.4239     30.27     29.04    -27.00     17.72
    9.4340     29.21     29.07    -28.08     17.72
    9.4442     29.13     29.10    -28.19     17.72
    9.4544     29.55     29.12    -27.79     17.72
    9.4645     29.80     29.15    -27.57     17.72
    9.4747     29.27     29.18    -28.13     17.71
    9.4848     29.71     29.20    -27.71     17.71
    9.4950     29.03     29.23    -28.42     17.71
    9.5052     29.59     29.26    -27.89     17.71
    9.5153     29.71     29.28    -27.80     17.71
    9.5255     29.78     29.31    -27.75     17.71
    9.5357     29.70     29.34    -27.86     17.71
    9.5458     29.23     29.37    -28.36     17.71
    9.5560     29.35     29.39    -28.26     17.70
    9.5662     30.04     29.42    -27.60     17.70
    9.5763     29.64     29.45    -28.03     17.70
    9.5865     29.22     29.48    -28.48     17.70
    9.5967     30.45     29.50    -27.28     17.70
    9.6068     29.98     29.53    -27.77     17.70
    9.6170     29.45     29.56    -28.33     17.70
    9.6271     29.88     29.59    -27.93     17.70
    9.6373     30.20     29.61    -27.64     17.69
    9.6475     29.82     29.64    -28.04     17.69
    9.6576     29.82     29.67    -28.07     17.69
    9.6678     29.85     29.70    -28.07     17.69
    9.6780     30.34     29.73    -27.61     17.69
    9.6881     30.43     29.75    -27.55     17.69
    9.6983     30.23     29.78    -27.78     17.69
    9.7085     30.19     29.81    -27.84     17.68
    9.7186     30.23     29.84    -27.83     17.68
    9.7288     30.12     29.87    -27.97     17.68
    9.7390     30.22     29.90    -27.90     17.68
    9.7491     30.49     29.93    -27.66     17.68
    9.7593     30.60     29.96    -27.58     17.68
    9.7694     30.87     29.98    -27.34     17.68
    9.7796     30.07     30.01    -28.17     17.68
    9.7898     29.85     30.04    -28.41     17.67
    9.7999     31.41     30.07    -26.88     17.67
    9.8101     30.90     30.10    -27.42     17.67
    9.8203     30.88     30.13    -27.47     17.67
    9.8304     29.56     30.16    -28.82     17.67
    9.8406     30.20     30.19    -28.21     17.67
    9.8508     31.06     30.22    -27.38     17.67
    9.8609     31.07     30.25    -27.40     17.67
    9.8711     30.26     30.28    -28.24     17.66
    9.8813     31.27     30.31    -27.26     17.66
    9.8914     30.98     30.34    -27.58     17.66
    9.9016     30.09     30.37    -28.50     17.66
    9.9118     30.51     30.40    -28.11     17.66
    9.9219     29.86     30.43    -28.79     17.66
    9.9321     31.88     30.46    -26.80     17.66
    9.9422     30.56     30.49    -28.15     17.66
    9.9524     30.88     30.52    -27.86     17.65
    9.9626     30.95     30.55    -27.82     17.65
    9.9727     32.48     30.58    -26.32     17.65
    9.9829     31.09     30.61    -27.74     17.65
    9.9931     31.24     30.64    -27.62     17.65
   10.0032     30.30     30.67    -28.59     17.65
   10.0134     31.18     30.70    -27.74     17.65
   10.0236     30.96     30.73    -28.00     17.65
   10.0337     30.51     30.76    -28.48     17.64
   10.0439     30.86     30.80    -28.16     17.64
   10.0541     31.01     30.83    -28.04     17.64
   10.0642     31.24     30.86    -27.84     17.64
   10.0744     30.90     30.89    -28.21     17.64
   10.0845     30.98     30.92    -28.16     17.64
   10.0947     31.37     30.95    -27.80     17.64
   10.1049     31.26     30.98    -27.95     17.64
   10.1150     31.40     31.02    -27.84     17.63
   10.1252     31.07     31.05    -28.20     17.63
   10.1354     30.98     31.08    -28.32     17.63
   10.1455     31.84     31.11    -27.49     17.63
   10.1557     31.38     31.14    -27.99     17.63
   10.1659     31.41     31.18    -27.99     17.63
   10.1760     31.23     31.21    -28.20     17.63
   10.1862     31.77     31.24    -27.69     17.62
   10.1964     30.60     31.27    -28.89     17.62
   10.2065     31.76     31.30    -27.77     17.62
   10.2167     32.11     31.34    -27.45     17.62
   10.2269     31.41     31.37    -28.18     17.62
   10.2370     31.84     31.40    -27.78     17.62
   10.2472     32.03     31.43    -27.63     17.62
   10.2573     31.69     31.47    -28.00     17.62
   10.2675     32.45     31.50    -27.27     17.61
   10.2777     32.20     31.53    -27.56     17.61
   10.2878     33.42     31.57    -26.37     17.61
   10.2980     32.07     31.60    -27.75     17.61
   10.3082     31.26     31.63    -28.59     17.61
   10.3183     32.27     31.67    -27.62     17.61
   10.3285     32.58     31.70    -27.34     17.61
   10.3387     31.85     31.73    -28.11     17.61
   10.3488     32.09     31.77    -27.90     17.60
   10.3590     31.80     31.80    -28.22     17.60
   10.3692     32.66     31.83    -27.40     17.60
   10.3793     32.16     31.87    -27.93     17.60
   10.3895     31.50     31.90    -28.62     17.60
   10.3996     31.54     31.94    -28.62     17.60
   10.4098     31.87     31.97    -28.32     17.60
   10.4200     32.47     32.00    -27.76     17.60
   10.4301     31.87     32.04    -28.39     17.59
   10.4403     31.52     32.07    -28.77     17.59
   10.4505     33.21     32.11    -27.12     17.59
   10.4606     31.72     32.14    -28.64     17.59
   10.4708     31.80     32.18    -28.60     17.59
   10.4810     33.03     32.21    -27.40     17.59
   10.4911     32.50     32.25    -27.97     17.59
   10.5013     32.94     32.28    -27.56     17.59
   10.5115     32.33     32.32    -28.21     17.58
   10.5216     32.26     32.35    -28.31     17.58
   10.5318     32.68     32.39    -27.93     17.58
   10.5420     33.45     32.42    -27.19     17.58
   10.5521     31.93     32.46    -28.75     17.58
   10.5623     32.99     32.49    -27.72     17.58
   10.5724     32.41     32.53    -28.34     17.58
   10.5826     31.85     32.56    -28.93     17.57
   10.5928     32.97     32.60    -27.85     17.57
   10.6029     33.65     32.63    -27.21     17.57
   10.6131     31.95     32.67    -28.94     17.57
   10.6233     32.31     32.71    -28.62     17.57
   10.6334     32.45     32.74    -28.51     17.57
   10.6436     32.54     32.78    -28.46     17.57
   10.6538     33.07     32.81    -27.97     17.57
   10.6639     33.40     32.85    -27.67     17.56
   10.6741     32.73     32.89    -28.38     17.56
   10.6843     33.18     32.92    -27.97     17.56
   10.6944     32.52     32.96    -28.66     17.56
   10.7046     33.15     33.00    -28.07     17.56
   10.7147     33.05     33.03    -28.20     17.56
   10.7249     34.22     33.07    -27.07     17.56
   10.7351     33.19     33.11    -28.14     17.56
   10.7452     32.63     33.14    -28.74     17.55
   10.7554     31.93     33.18    -29.47     17.55
   10.7656     32.98     33.22    -28.46     17.55
   10.7757     32.42     33.25    -29.06     17.55
   10.7859     32.95     33.29    -28.56     17.55
   10.7961     32.87     33.33    -28.68     17.55
   10.8062     32.84     33.37    -28.75     17.55
   10.8164     32.63     33.40    -29.00     17.55
   10.8266     33.52     33.44    -28.14     17.54
   10.8367     34.20     33.48    -27.50     17.54
   10.8469     32.66     33.52    -29.08     17.54
   10.8571     33.16     33.56    -28.62     17.54
   10.8672     34.68     33.59    -27.14     17.54
   10.8774     34.35     33.63    -27.50     17.54
   10.8875     33.53     33.67    -28.36     17.54
   10.8977     33.81     33.71    -28.12     17.54
   10.9079     34.16     33.75    -27.81     17.53
   10.9180     33.96     33.79    -28.05     17.53
   10.9282     33.48     33.82    -28.57     17.53
   10.9384     34.22     33.86    -27.86     17.53
   10.9485     33.95     33.90    -28.17     17.53
   10.9587     32.79     33.94    -29.37     17.53
   10.9689     33.62     33.98    -28.58     17.53
   10.9790     33.59     34.02    -28.65     17.53
   10.9892     33.42     34.06    -28.86     17.52
   10.9994     33.84     34.10    -28.48     17.52
   11.0095     33.43     34.14    -28.93     17.52
   11.0197     33.37     34.18    -29.03     17.52
   11.0298     34.27     34.21    -28.17     17.52
   11.0400     34.70     34.25    -27.78     17.52
   11.0502     34.40     34.29    -28.12     17.52
   11.0603     34.40     34.33    -28.16     17.51
   11.0705     34.01     34.37    -28.59     17.51
   11.0807     34.22     34.41    -28.42     17.51
   11.0908     33.93     34.45    -28.75     17.51
   11.1010     34.30     34.49    -28.42     17.51
   11.1112     34.43     34.53    -28.33     17.51
   11.1213     33.84     34.57    -28.96     17.51
   11.1315     34.66     34.62    -28.18     17.51
   11.1417     33.99     34.66    -28.89     17.50
   11.1518     34.98     34.70    -27.94     17.50
   11.1620     35.28     34.74    -27.68     17.50
   11.1722     34.41     34.78    -28.59     17.50
   11.1823     34.84     34.82    -28.20     17.50
   11.1925     33.68     34.86    -29.40     17.50
   11.2026     34.07     34.90    -29.05     17.50
   11.2128     34.71     34.94    -28.45     17.50
   11.2230     35.80     34.98    -27.41     17.49
   11.2331     33.97     35.02    -29.28     17.49
   11.2433     34.85     35.07    -28.44     17.49
   11.2535     34.32     35.11    -29.01     17.49
   11.2636     34.38     35.15    -28.99     17.49
   11.2738     34.65     35.19    -28.76     17.49
   11.2840     35.38     35.23    -28.07     17.49
   11.2941     34.45     35.27    -29.05     17.49
   11.3043     35.39     35.32    -28.15     17.48
   11.3145     35.63     35.36    -27.95     17.48
   11.3246     35.02     35.40    -28.60     17.48
   11.3348     35.45     35.44    -28.22     17.48
   11.3449     34.40     35.49    -29.31     17.48
   11.3551     34.65     35.53    -29.10     17.48
   11.3653     35.29     35.57    -28.50     17.48
   11.3754     35.36     35.61    -28.47     17.48
   11.3856     34.79     35.66    -29.09     17.47
   11.3958     34.82     35.70    -29.10     17.47
   11.4059     34.41     35.74    -29.55     17.47
   11.4161     34.35     35.78    -29.66     17.47
   11.4263     34.53     35.83    -29.52     17.47
   11.4364     34.49     35.87    -29.60     17.47
   11.4466     36.00     35.91    -28.14     17.47
   11.4568     34.71     35.96    -29.47     17.47
   11.4669     36.04     36.00    -28.18     17.46
   11.4771     35.67     36.05    -28.60     17.46
   11.4873     35.43     36.09    -28.88     17.46
   11.4974     35.53     36.13    -28.82     17.46
   11.5076     35.21     36.18    -29.19     17.46
   11.5177     36.40     36.22    -28.04     17.46
   11.5279     35.82     36.26    -28.67     17.46
   11.5381     35.29     36.31    -29.24     17.45
   11.5482     35.65     36.35    -28.93     17.45
   11.5584     35.62     36.40    -29.00     17.45
   11.5686     35.91     36.44    -28.75     17.45
   11.5787     36.46     36.49    -28.25     17.45
   11.5889     35.54     36.53    -29.21     17.45
   11.5991     36.45     36.58    -28.35     17.45
   11.6092     36.45     36.62    -28.39     17.45
   11.6194     36.38     36.67    -28.51     17.44
   11.6296     35.99     36.71    -28.94     17.44
   11.6397     35.63     36.76    -29.35     17.44
   11.6499     35.30     36.80    -29.72     17.44
   11.6600     35.84     36.85    -29.23     17.44
   11.6702     36.04     36.89    -29.07     17.44
   11.6804     36.67     36.94    -28.49     17.44
   11.6905     36.29     36.98    -28.92     17.44
   11.7007     36.48     37.03    -28.77     17.43
   11.7109     37.13     37.08    -28.17     17.43
   11.7210     35.45     37.12    -29.89     17.43
   11.7312     36.18     37.17    -29.21     17.43
   11.7414     36.68     37.21    -28.76     17.43
   11.7515     36.46     37.26    -29.02     17.43
   11.7617     36.26     37.31    -29.27     17.43
   11.7719     36.75     37.35    -28.82     17.43
   11.7820     35.94     37.40    -29.68     17.42
   11.7922     36.94     37.45    -28.73     17.42
   11.8023     36.52     37.49    -29.19     17.42
   11.8125     37.03     37.54    -28.73     17.42
   11.8227     37.53     37.59    -28.28     17.42
   11.8328     36.90     37.63    -28.95     17.42
   11.8430     36.87     37.68    -29.03     17.42
   11.8532     36.81     37.73    -29.14     17.42
   11.8633     37.05     37.77    -28.95     17.41
   11.8735     37.11     37.82    -28.93     17.41
   11.8837     37.54     37.87    -28.55     17.41
   11.8938     36.74     37.92    -29.40     17.41
   11.9040     37.54     37.97    -28.65     17.41
   11.9142     37.84     38.01    -28.40     17.41
   11.9243     37.65     38.06    -28.63     17.41
   11.9345     36.70     38.11    -29.63     17.40
   11.9447     37.98     38.16    -28.40     17.40
   11.9548     37.68     38.21    -28.75     17.40
   11.9650     37.37     38.25    -29.11     17.40
   11.9751     37.21     38.30    -29.31     17.40
   11.9853     37.27     38.35    -29.30     17.40
   11.9955     37.32     38.40    -29.30     17.40
   12.0056     37.75     38.45    -28.92     17.40
   12.0158     37.84     38.50    -28.88     17.39
   12.0260     37.78     38.55    -28.99     17.39
   12.0361     37.27     38.59    -29.55     17.39
   12.0463     38.41     38.64    -28.46     17.39
   12.0565     38.57     38.69    -28.35     17.39
   12.0666     38.48     38.74    -28.48     17.39
   12.0768     37.16     38.79    -29.85     17.39
   12.0870     38.32     38.84    -28.74     17.39
   12.0971     38.20     38.89    -28.91     17.38
   12.1073     38.04     38.94    -29.12     17.38
   12.1174     38.59     38.99    -28.62     17.38
   12.1276     37.98     39.04    -29.28     17.38
   12.1378     38.06     39.09    -29.25     17.38
   12.1479     37.56     39.14    -29.80     17.38
   12.1581     38.97     39.19    -28.44     17.38
   12.1683     39.48     39.24    -27.98     17.38
   12.1784     38.05     39.29    -29.46     17.37
   12.1886     39.35     39.34    -28.21     17.37
   12.1988     38.36     39.39    -29.25     17.37
   12.2089     38.23     39.44    -29.44     17.37
   12.2191     38.77     39.49    -28.95     17.37
   12.2293     39.25     39.55    -28.52     17.37
   12.2394     39.08     39.60    -28.74     17.37
   12.2496     38.66     39.65    -29.21     17.37
   12.2598     38.26     39.70    -29.66     17.36
   12.2699     38.51     39.75    -29.46     17.36
   12.2801     39.24     39.80    -28.78     17.36
   12.2902     39.34     39.85    -28.73     17.36
   12.3004     39.60     39.90    -28.53     17.36
   12.3106     39.37     39.96    -28.81     17.36
   12.3207     39.55     40.01    -28.68     17.36
   12.3309     38.96     40.06    -29.32     17.36
   12.3411     39.20     40.11    -29.13     17.35
   12.3512     39.80     40.16    -28.59     17.35
   12.3614     39.13     40.22    -29.31     17.35
   12.3716     39.04     40.27    -29.45     17.35
   12.3817     39.99     40.32    -28.55     17.35
   12.3919     40.00     40.37    -28.60     17.35
   12.4021     39.43     40.43    -29.22     17.35
   12.4122     39.07     40.48    -29.63     17.34
   12.4224     39.57     40.53    -29.18     17.34
   12.4325     39.89     40.59    -28.92     17.34
   12.4427     39.43     40.64    -29.43     17.34
   12.4529     39.89     40.69    -29.02     17.34
   12.4630     40.08     40.74    -28.89     17.34
   12.4732     39.71     40.80    -29.31     17.34
   12.4834     40.43     40.85    -28.64     17.34
   12.4935     40.71     40.91    -28.42     17.33
   12.5037     40.70     40.96    -28.48     17.33
   12.5139     40.75     41.01    -28.49     17.33
   12.5240     39.51     41.07    -29.78     17.33
   12.5342     40.62     41.12    -28.72     17.33
   12.5444     39.95     41.18    -29.45     17.33
   12.5545     39.97     41.23    -29.48     17.33
   12.5647     40.98     41.28    -28.53     17.33
   12.5749     41.31     41.34    -28.25     17.32
   12.5850     41.26     41.39    -28.35     17.32
   12.5952     40.17     41.45    -29.50     17.32
   12.6053     42.05     41.50    -27.67     17.32
   12.6155     40.71     41.56    -29.07     17.32
   12.6257     41.46     41.61    -28.37     17.32
   12.6358     42.36     41.67    -27.53     17.32
   12.6460     40.99     41.72    -28.95     17.32
   12.6562     40.71     41.78    -29.29     17.31
   12.6663     42.66     41.83    -27.39     17.31
   12.6765     40.71     41.89    -29.40     17.31
   12.6867     40.71     41.94    -29.46     17.31
   12.6968     41.24     42.00    -28.98     17.31
   12.7070     41.26     42.06    -29.02     17.31
   12.7172     41.18     42.11    -29.15     17.31
   12.7273     42.27     42.17    -28.12     17.31
   12.7375     42.38     42.22    -28.07     17.30
   12.7476     41.92     42.28    -28.58     17.30
   12.7578     41.09     42.34    -29.47     17.30
   12.7680     41.40     42.39    -29.21     17.30
   12.7781     41.97     42.45    -28.70     17.30
   12.7883     42.95     42.51    -27.78     17.30
   12.7985     41.59     42.56    -29.19     17.30
   12.8086     42.45     42.62    -28.39     17.30
   12.8188     41.79     42.68    -29.11     17.29
   12.8290     42.61     42.73    -28.35     17.29
   12.8391     41.70     42.79    -29.31     17.29
   12.8493     43.93     42.85    -27.14     17.29
   12.8595     42.51     42.91    -28.62     17.29
   12.8696     42.35     42.96    -28.83     17.29
   12.8798     41.95     43.02    -29.29     17.29
   12.8900     42.12     43.08    -29.18     17.28
   12.9001     42.84     43.14    -28.52     17.28
   12.9103     42.68     43.19    -28.74     17.28
   12.9204     43.13     43.25    -28.34     17.28
   12.9306     42.55     43.31    -28.98     17.28
   12.9408     42.98     43.37    -28.61     17.28
   12.9509     43.46     43.43    -28.19     17.28
   12.9611     43.18     43.49    -28.53     17.28
   12.9713     42.17     43.54    -29.60     17.27
   12.9814     43.04     43.60    -28.78     17.27
   12.9916     43.20     43.66    -28.68     17.27
   13.0018     43.87     43.72    -28.07     17.27
   13.0119     43.37     43.78    -28.63     17.27
   13.0221     43.34     43.84    -28.72     17.27
   13.0323     43.59     43.90    -28.53     17.27
   13.0424     44.07     43.96    -28.11     17.27
   13.0526     43.79     44.02    -28.45     17.26
   13.0627     42.47     44.08    -29.83     17.26
   13.0729     43.96     44.14    -28.40     17.26
   13.0831     43.70     44.20    -28.72     17.26
   13.0932     45.29     44.25    -27.19     17.26
   13.1034     44.37     44.32    -28.17     17.26
   13.1136     43.73     44.38    -28.87     17.26
   13.1237     44.18     44.44    -28.48     17.26
   13.1339     44.73     44.50    -27.99     17.25
   13.1441     44.70     44.56    -28.08     17.25
   13.1542     43.84     44.62    -29.00     17.25
   13.1644     44.20     44.68    -28.70     17.25
   13.1746     44.19     44.74    -28.77     17.25
   13.1847     45.10     44.80    -27.92     17.25
   13.1949     43.71     44.86    -29.37     17.25
   13.2051     44.72     44.92    -28.42     17.25
   13.2152     45.20     44.98    -28.00     17.24
   13.2254     44.53     45.04    -28.74     17.24
   13.2355     44.99     45.10    -28.34     17.24
   13.2457     45.13     45.17    -28.26     17.24
   13.2559     44.75     45.23    -28.70     17.24
   13.2660     45.15     45.29    -28.36     17.24
   13.2762     45.51     45.35    -28.06     17.24
   13.2864     45.77     45.41    -27.87     17.23
   13.2965     45.68     45.48    -28.02     17.23
   13.3067     45.84     45.54    -27.92     17.23
   13.3169     46.29     45.60    -27.53     17.23
   13.3270     46.68     45.66    -27.20     17.23
   13.3372     46.00     45.73    -27.95     17.23
   13.3474     45.85     45.79    -28.16     17.23
   13.3575     45.33     45.85    -28.74     17.23
   13.3677     46.33     45.91    -27.81     17.22
   13.3778     45.94     45.98    -28.26     17.22
   13.3880     46.57     46.04    -27.69     17.22
   13.3982     45.87     46.10    -28.46     17.22
   13.4083     45.98     46.17    -28.41     17.22
   13.4185     46.38     46.23    -28.07     17.22
   13.4287     46.85     46.29    -27.67     17.22
   13.4388     46.31     46.36    -28.27     17.22
   13.4490     46.59     46.42    -28.05     17.21
   13.4592     46.90     46.49    -27.81     17.21
   13.4693     46.11     46.55    -28.66     17.21
   13.4795     47.08     46.61    -27.76     17.21
   13.4897     45.95     46.68    -28.95     17.21
   13.4998     47.89     46.74    -27.07     17.21
   13.5100     47.34     46.81    -27.69     17.21
   13.5201     47.52     46.87    -27.57     17.21
   13.5303     47.35     46.94    -27.81     17.20
   13.5405     47.30     47.00    -27.92     17.20
   13.5506     47.23     47.07    -28.06     17.20
   13.5608     47.77     47.13    -27.58     17.20
   13.5710     48.13     47.20    -27.29     17.20
   13.5811     47.51     47.26    -27.97     17.20
   13.5913     48.71     47.33    -26.84     17.20
   13.6015     48.30     47.39    -27.32     17.20
   13.6116     48.66     47.46    -27.02     17.19
   13.6218     48.67     47.52    -27.08     17.19
   13.6320     46.85     47.59    -28.96     17.19
   13.6421     48.56     47.66    -27.32     17.19
   13.6523     47.85     47.72    -28.09     17.19
   13.6625     48.54     47.79    -27.47     17.19
   13.6726     48.80     47.86    -27.28     17.19
   13.6828     47.99     47.92    -28.15     17.19
   13.6929     47.68     47.99    -28.53     17.18
   13.7031     49.54     48.06    -26.74     17.18
   13.7133     48.91     48.12    -27.43     17.18
   13.7234     49.24     48.19    -27.17     17.18
   13.7336     50.29     48.26    -26.19     17.18
   13.7438     49.17     48.32    -27.38     17.18
   13.7539     48.62     48.39    -27.99     17.18
   13.7641     49.51     48.46    -27.17     17.17
   13.7743     49.83     48.53    -26.92     17.17
   13.7844     49.66     48.59    -27.16     17.17
   13.7946     49.45     48.66    -27.44     17.17
   13.8048     50.54     48.73    -26.41     17.17
   13.8149     50.88     48.80    -26.14     17.17
   13.8251     49.67     48.87    -27.42     17.17
   13.8352     50.24     48.94    -26.92     17.17
   13.8454     50.68     49.00    -26.55     17.16
   13.8556     50.20     49.07    -27.10     17.16
   13.8657     50.34     49.14    -27.02     17.16
   13.8759     49.40     49.21    -28.03     17.16
   13.8861     50.62     49.28    -26.88     17.16
   13.8962     51.24     49.35    -26.33     17.16
   13.9064     51.29     49.42    -26.35     17.16
   13.9166     50.58     49.49    -27.13     17.16
   13.9267     50.08     49.56    -27.70     17.15
   13.9369     50.97     49.63    -26.88     17.15
   13.9471     50.73     49.70    -27.19     17.15
   13.9572     50.35     49.77    -27.64     17.15
   13.9674     50.63     49.84    -27.43     17.15
   13.9776     51.73     49.91    -26.40     17.15
   13.9877     50.75     49.98    -27.45     17.15
   13.9979     51.26     50.05    -27.01     17.15
   14.0080     52.63     50.12    -25.71     17.14
   14.0182     51.60     50.19    -26.82     17.14
   14.0284     52.32     50.26    -26.17     17.14
   14.0385     52.56     50.34    -26.00     17.14
   14.0487     51.26     50.41    -27.37     17.14
   14.0589     51.62     50.48    -27.08     17.14
   14.0690     52.60     50.55    -26.17     17.14
   14.0792     53.24     50.62    -25.61     17.14
   14.0894     52.36     50.70    -26.56     17.13
   14.0995     52.14     50.77    -26.85     17.13
   14.1097     52.01     50.84    -27.05     17.13
   14.1199     52.11     50.91    -27.02     17.13
   14.1300     53.02     50.99    -26.19     17.13
   14.1402     52.55     51.06    -26.73     17.13
   14.1503     52.77     51.13    -26.58     17.13
   14.1605     52.35     51.20    -27.08     17.13
   14.1707     52.81     51.28    -26.69     17.12
   14.1808     53.21     51.35    -26.36     17.12
   14.1910     52.34     51.43    -27.31     17.12
   14.2012     54.85     51.50    -24.87     17.12
   14.2113     52.28     51.57    -27.52     17.12
   14.2215     54.05     51.65    -25.82     17.12
   14.2317     54.12     51.72    -25.83     17.12
   14.2418     53.37     51.80    -26.65     17.11
   14.2520     53.88     51.87    -26.21     17.11
   14.2622     53.74     51.95    -26.43     17.11
   14.2723     54.45     52.02    -25.79     17.11
   14.2825     54.13     52.10    -26.19     17.11
   14.2927     54.31     52.17    -26.09     17.11
   14.3028     55.17     52.25    -25.30     17.11
   14.3130     54.86     52.33    -25.69     17.11
   14.3231     54.65     52.40    -25.97     17.10
   14.3333     53.63     52.48    -27.07     17.10
   14.3435     56.14     52.56    -24.64     17.10
   14.3536     56.00     52.63    -24.85     17.10
   14.3638     56.11     52.71    -24.82     17.10
   14.3740     55.82     52.79    -25.19     17.10
   14.3841     54.59     52.86    -26.50     17.10
   14.3943     54.22     52.94    -26.94     17.10
   14.4045     54.29     53.02    -26.95     17.09
   14.4146     56.26     53.10    -25.06     17.09
   14.4248     56.16     53.18    -25.24     17.09
   14.4350     56.24     53.26    -25.24     17.09
   14.4451     55.78     53.33    -25.78     17.09
   14.4553     55.74     53.41    -25.90     17.09
   14.4654     56.82     53.49    -24.90     17.09
   14.4756     55.93     53.57    -25.87     17.09
   14.4858     56.41     53.65    -25.47     17.08
   14.4959     57.90     53.73    -24.06     17.08
   14.5061     55.96     53.81    -26.08     17.08
   14.5163     56.90     53.89    -25.22     17.08
   14.5264     57.54     53.98    -24.66     17.08
   14.5366     57.54     54.06    -24.74     17.08
   14.5468     57.61     54.14    -24.75     17.08
   14.5569     58.23     54.22    -24.21     17.08
   14.5671     58.58     54.30    -23.94     17.07
   14.5773     57.11     54.39    -25.50     17.07
   14.5874     58.69     54.47    -24.00     17.07
   14.5976     58.09     54.55    -24.68     17.07
   14.6078     58.88     54.63    -23.98     17.07
   14.6179     59.46     54.72    -23.48     17.07
   14.6281     58.85     54.80    -24.17     17.07
   14.6382     58.43     54.89    -24.68     17.06
   14.6484     57.95     54.97    -25.24     17.06
   14.6586     59.01     55.06    -24.27     17.06
   14.6687     59.36     55.14    -24.00     17.06
   14.6789     59.74     55.23    -23.71     17.06
   14.6891     59.07     55.31    -24.46     17.06
   14.6992     58.23     55.40    -25.39     17.06
   14.7094     59.30     55.49    -24.41     17.06
   14.7196     58.48     55.57    -25.31     17.05
   14.7297     60.02     55.66    -23.86     17.05
   14.7399     60.84     55.75    -23.13     17.05
   14.7501     60.59     55.84    -23.47     17.05
   14.7602     60.44     55.92    -23.71     17.05
   14.7704     60.13     56.01    -24.11     17.05
   14.7805     59.88     56.10    -24.44     17.05
   14.7907     60.20     56.19    -24.21     17.05
   14.8009     61.78     56.28    -22.72     17.04
   14.8110     60.79     56.37    -23.80     17.04
   14.8212     60.95     56.46    -23.74     17.04
   14.8314     60.48     56.56    -24.30     17.04
   14.8415     60.58     56.65    -24.29     17.04
   14.8517     60.60     56.74    -24.36     17.04
   14.8619     61.09     56.83    -23.97     17.04
   14.8720     60.47     56.93    -24.68     17.04
   14.8822     61.27     57.02    -23.97     17.03
   14.8924     60.96     57.11    -24.38     17.03
   14.9025     61.79     57.21    -23.64     17.03
   14.9127     61.43     57.30    -24.10     17.03
   14.9229     61.11     57.40    -24.51     17.03
   14.9330     61.51     57.50    -24.21     17.03
   14.9432     61.42     57.59    -24.40     17.03
   14.9533     61.66     57.69    -24.25     17.03
   14.9635     61.81     57.79    -24.20     17.02
   14.9737     62.21     57.89    -23.90     17.02
   14.9838     62.71     57.99    -23.50     17.02
   14.9940     62.85     58.09    -23.46     17.02
   15.0042     62.43     58.19    -23.98     17.02
   15.0143     62.80     58.29    -23.71     17.02
   15.0245     63.98     58.39    -22.63     17.02
   15.0347     62.96     58.49    -23.75     17.02
   15.0448     64.17     58.59    -22.65     17.01
   15.0550     63.03     58.70    -23.89     17.01
   15.0652     63.80     58.80    -23.22     17.01
   15.0753     64.52     58.91    -22.61     17.01
   15.0855     64.01     59.01    -23.22     17.01
   15.0956     65.01     59.12    -22.33     17.01
   15.1058     64.61     59.22    -22.84     17.01
   15.1160     63.88     59.33    -23.67     17.00
   15.1261     64.37     59.44    -23.29     17.00
   15.1363     66.16     59.55    -21.61     17.00
   15.1465     65.22     59.66    -22.66     17.00
   15.1566     63.55     59.77    -24.44     17.00
   15.1668     65.38     59.88    -22.72     17.00
   15.1770     66.36     59.99    -21.86     17.00
   15.1871     65.08     60.11    -23.25     17.00
   15.1973     65.68     60.22    -22.76     16.99
   15.2075     66.13     60.33    -22.43     16.99
   15.2176     65.96     60.45    -22.71     16.99
   15.2278     66.70     60.57    -22.09     16.99
   15.2380     65.23     60.68    -23.67     16.99
   15.2481     66.38     60.80    -22.64     16.99
   15.2583     67.69     60.92    -21.45     16.99
   15.2684     66.73     61.04    -22.53     16.99
   15.2786     67.76     61.16    -21.62     16.98
   15.2888     67.19     61.28    -22.31     16.98
   15.2989     67.63     61.40    -21.99     16.98
   15.3091     66.87     61.53    -22.88     16.98
   15.3193     67.09     61.65    -22.78     16.98
   15.3294     67.38     61.78    -22.62     16.98
   15.3396     67.03     61.90    -23.09     16.98
   15.3498     69.43     62.03    -20.82     16.98
   15.3599     68.61     62.16    -21.77     16.97
   15.3701     68.65     62.29    -21.86     16.97
   15.3803     68.52     62.42    -22.12     16.97
   15.3904     67.15     62.55    -23.62     16.97
   15.4006     66.43     62.68    -24.47     16.97
   15.4107     68.05     62.81    -22.99     16.97
   15.4209     68.46     62.95    -22.71     16.97
   15.4311     68.41     63.09    -22.90     16.97
   15.4412     70.65     63.22    -20.79     16.96
   15.4514     69.00     63.36    -22.58     16.96
   15.4616     70.01     63.50    -21.71     16.96
   15.4717     69.57     63.64    -22.29     16.96
   15.4819     69.01     63.78    -22.99     16.96
   15.4921     70.50     63.92    -21.65     16.96
   15.5022     70.59     64.07    -21.70     16.96
   15.5124     71.09     64.21    -21.35     16.96
   15.5226     70.41     64.36    -22.17     16.95
   15.5327     70.74     64.51    -21.99     16.95
   15.5429     71.45     64.66    -21.43     16.95
   15.5530     71.26     64.81    -21.77     16.95
   15.5632     70.46     64.96    -22.72     16.95
   15.5734     71.68     65.11    -21.65     16.95
   15.5835     70.59     65.27    -22.90     16.95
   15.5937     71.26     65.42    -22.38     16.94
   15.6039     71.16     65.58    -22.64     16.94
   15.6140     72.21     65.74    -21.75     16.94
   15.6242     72.77     65.90    -21.35     16.94
   15.6344     73.40     66.06    -20.88     16.94
   15.6445     71.93     66.22    -22.51     16.94
   15.6547     72.17     66.38    -22.44     16.94
   15.6649     72.65     66.55    -22.12     16.94
   15.6750     72.80     66.72    -22.14     16.93
   15.6852     73.05     66.88    -22.06     16.93
   15.6954     71.45     67.06    -23.83     16.93
   15.7055     73.03     67.23    -22.42     16.93
   15.7157     72.89     67.40    -22.73     16.93
   15.7258     73.82     67.57    -21.97     16.93
   15.7360     73.26     67.75    -22.71     16.93
   15.7462     74.10     67.93    -22.05     16.93
   15.7563     73.35     68.10    -22.98     16.92
   15.7665     75.60     68.29    -20.91     16.92
   15.7767     74.71     68.47    -21.98     16.92
   15.7868     74.58     68.65    -22.29     16.92
   15.7970     76.19     68.84    -20.87     16.92
   15.8072     75.95     69.02    -21.30     16.92
   15.8173     74.04     69.21    -23.39     16.92
   15.8275     75.05     69.40    -22.57     16.92
   15.8377     75.59     69.59    -22.23     16.91
   15.8478     75.24     69.79    -22.77     16.91
   15.8580     76.07     69.98    -22.13     16.91
   15.8681     75.70     70.18    -22.70     16.91
   15.8783     75.21     70.38    -23.39     16.91
   15.8885     77.51     70.58    -21.29     16.91
   15.8986     76.21     70.78    -22.79     16.91
   15.9088     77.29     70.98    -21.91     16.91
   15.9190     75.83     71.19    -23.58     16.90
   15.9291     76.96     71.39    -22.66     16.90
   15.9393     78.08     71.60    -21.74     16.90
   15.9495     77.76     71.81    -22.28     16.90
   15.9596     77.70     72.02    -22.55     16.90
   15.9698     77.01     72.24    -23.45     16.90
   15.9800     77.34     72.46    -23.34     16.90
   15.9901     78.38     72.67    -22.51     16.90
   16.0003     79.79     72.89    -21.32     16.89
   16.0105     79.03     73.11    -22.30     16.89
   16.0206     79.13     73.33    -22.43     16.89
   16.0308     78.26     73.56    -23.52     16.89
   16.0409     79.24     73.78    -22.76     16.89
   16.0511     79.33     74.01    -22.90     16.89
   16.0613     78.14     74.24    -24.32     16.89
   16.0714     79.73     74.47    -22.96     16.88
   16.0816     79.87     74.71    -23.06     16.88
   16.0918     78.61     74.94    -24.55     16.88
   16.1019     80.80     75.18    -22.60     16.88
   16.1121     80.43     75.41    -23.21     16.88
   16.1223     79.72     75.66    -24.16     16.88
   16.1324     80.78     75.90    -23.34     16.88
   16.1426     81.38     76.14    -22.98     16.88
   16.1528     81.55     76.39    -23.06     16.87
   16.1629     81.76     76.63    -23.09     16.87
   16.1731     81.66     76.88    -23.44     16.87
   16.1832     82.01     77.13    -23.34     16.87
   16.1934     81.99     77.38    -23.62     16.87
   16.2036     82.70     77.64    -23.16     16.87
   16.2137     81.04     77.89    -25.07     16.87
   16.2239     82.82     78.15    -23.55     16.87
   16.2341     83.29     78.41    -23.34     16.86
   16.2442     82.68     78.67    -24.21     16.86
   16.2544     83.46     78.93    -23.69     16.86
   16.2646     83.44     79.20    -23.98     16.86
   16.2747     83.86     79.46    -23.82     16.86
   16.2849     83.70     79.73    -24.25     16.86
   16.2951     83.26     80.00    -24.96     16.86
   16.3052     84.29     80.27    -24.20     16.86
   16.3154     84.04     80.54    -24.72     16.85
   16.3256     85.12     80.82    -23.92     16.85
   16.3357     84.36     81.09    -24.95     16.85
   16.3459     86.23     81.37    -23.36     16.85
   16.3560     85.29     81.64    -24.57     16.85
   16.3662     83.12     81.92    -27.03     16.85
   16.3764     85.86     82.21    -24.57     16.85
   16.3865     85.56     82.49    -25.15     16.85
   16.3967     85.91     82.77    -25.08     16.84
   16.4069     85.20     83.06    -26.08     16.84
   16.4170     85.95     83.34    -25.62     16.84
   16.4272     86.38     83.63    -25.47     16.84
   16.4374     86.96     83.92    -25.19     16.84
   16.4475     87.21     84.21    -25.22     16.84
   16.4577     87.48     84.51    -25.25     16.84
   16.4679     86.59     84.80    -26.43     16.83
   16.4780     86.52     85.09    -26.80     16.83
   16.4882     87.84     85.39    -25.77     16.83
   16.4983     87.48     85.69    -26.43     16.83
   16.5085     88.54     85.99    -25.67     16.83
   16.5187     87.35     86.29    -27.16     16.83
   16.5288     87.53     86.58    -27.28     16.83
   16.5390     89.01     86.89    -26.10     16.83
   16.5492     88.52     87.19    -26.89     16.82
   16.5593     89.88     87.49    -25.84     16.82
   16.5695     90.22     87.80    -25.80     16.82
   16.5797     91.15     88.11    -25.18     16.82
   16.5898     90.62     88.41    -26.01     16.82
   16.6000     91.01     88.72    -25.93     16.82
   16.6102     92.40     89.03    -24.85     16.82
   16.6203     90.99     89.33    -26.57     16.82
   16.6305     90.09     89.65    -27.78     16.81
   16.6407     90.68     89.96    -27.50     16.81
   16.6508     91.25     90.27    -27.24     16.81
   16.6610     92.75     90.58    -26.05     16.81
   16.6711     91.15     90.89    -27.96     16.81
   16.6813     91.62     91.20    -27.81     16.81
   16.6915     93.71     91.52    -26.03     16.81
   16.7016     92.62     91.83    -27.43     16.81
   16.7118     93.20     92.14    -27.17     16.80
   16.7220     93.34     92.46    -27.34     16.80
   16.7321     94.07     92.77    -26.92     16.80
   16.7423     94.28     93.09    -27.03     16.80
   16.7525     92.76     93.40    -28.87     16.80
   16.7626     94.75     93.72    -27.19     16.80
   16.7728     93.50     94.03    -28.76     16.80
   16.7830     94.77     94.35    -27.80     16.80
   16.7931     93.93     94.66    -28.96     16.79
   16.8033     94.34     94.98    -28.86     16.79
   16.8134     94.35     95.29    -29.16     16.79
   16.8236     96.84     95.61    -26.99     16.79
   16.8338     95.77     95.92    -28.38     16.79
   16.8439     95.35     96.24    -29.11     16.79
   16.8541     96.98     96.55    -27.79     16.79
   16.8643     95.86     96.86    -29.23     16.79
   16.8744     97.10     97.17    -28.30     16.78
   16.8846     97.57     97.49    -28.14     16.78
   16.8948     95.85     97.80    -30.17     16.78
   16.9049     96.07     98.11    -30.26     16.78
   16.9151     97.29     98.42    -29.35     16.78
   16.9253     97.98     98.73    -28.97     16.78
   16.9354     97.15     99.04    -30.11     16.78
   16.9456     97.85     99.34    -29.72     16.77
   16.9558     97.55     99.65    -30.32     16.77
   16.9659     96.85     99.95    -31.33     16.77
   16.9761     97.26    100.26    -31.22     16.77
   16.9862     97.19    100.56    -31.59     16.77
   16.9964     98.54    100.86    -30.54     16.77
   17.0066     98.12    101.16    -31.26     16.77
   17.0167     98.42    101.46    -31.26     16.77
   17.0269     99.04    101.76    -30.94     16.76
   17.0371    100.82    102.05    -29.45     16.76
   17.0472    100.29    102.34    -30.28     16.76
   17.0574     99.53    102.64    -31.33     16.76
   17.0676     98.59    102.93    -32.56     16.76
   17.0777    100.50    103.21    -30.93     16.76
   17.0879    100.64    103.50    -31.08     16.76
   17.0981    100.33    103.78    -31.68     16.76
   17.1082     99.59    104.06    -32.70     16.75
   17.1184    100.37    104.34    -32.20     16.75
   17.1285    101.55    104.62    -31.29     16.75
   17.1387    100.36    104.90    -32.76     16.75
   17.1489    101.32    105.17    -32.07     16.75
   17.1590    100.76    105.44    -32.90     16.75
   17.1692    100.48    105.71    -33.45     16.75
   17.1794    100.24    105.97    -33.96     16.75
   17.1895    100.71    106.24    -33.75     16.74
   17.1997    102.67    106.50    -32.05     16.74
   17.2099    103.61    106.76    -31.37     16.74
   17.2200    102.20    107.01    -33.03     16.74
   17.2302    102.60    107.26    -32.89     16.74
   17.2404    104.37    107.51    -31.37     16.74
   17.2505    103.02    107.76    -32.96     16.74
   17.2607    103.09    108.01    -33.14     16.74
   17.2709    103.30    108.25    -33.17     16.73
   17.2810    104.91    108.49    -31.80     16.73
   17.2912    104.05    108.72    -32.89     16.73
   17.3013    103.90    108.95    -33.28     16.73
   17.3115    102.95    109.19    -34.46     16.73
   17.3217    104.70    109.41    -32.94     16.73
   17.3318    102.85    109.64    -35.01     16.73
   17.3420    104.42    109.86    -33.66     16.73
   17.3522    104.68    110.08    -33.62     16.72
   17.3623    104.52    110.30    -34.00     16.72
   17.3725    106.54    110.52    -32.20     16.72
   17.3827    105.96    110.73    -32.99     16.72
   17.3928    107.09    110.94    -32.07     16.72
   17.4030    105.70    111.15    -33.67     16.72
   17.4132    107.05    111.35    -32.53     16.72
   17.4233    107.30    111.56    -32.48     16.71
   17.4335    106.70    111.76    -33.28     16.71
   17.4436    109.44    111.96    -30.74     16.71
   17.4538    109.12    112.16    -31.26     16.71
   17.4640    106.76    112.36    -33.82     16.71
   17.4741    108.54    112.56    -32.24     16.71
   17.4843    106.90    112.75    -34.07     16.71
   17.4945    107.70    112.95    -33.47     16.71
   17.5046    108.23    113.14    -33.14     16.70
   17.5148    109.51    113.34    -32.05     16.70
   17.5250    107.88    113.54    -33.88     16.70
   17.5351    109.35    113.73    -32.60     16.70
   17.5453    110.98    113.93    -31.17     16.70
   17.5555    110.04    114.13    -32.31     16.70
   17.5656    111.23    114.33    -31.32     16.70
   17.5758    109.99    114.53    -32.76     16.70
   17.5859    111.01    114.74    -31.95     16.69
   17.5961    113.66    114.95    -29.51     16.69
   17.6063    113.52    115.16    -29.86     16.69
   17.6164    113.48    115.38    -30.12     16.69
   17.6266    112.98    115.60    -30.84     16.69
   17.6368    115.17    115.83    -28.88     16.69
   17.6469    114.68    116.06    -29.60     16.69
   17.6571    114.05    116.30    -30.47     16.69
   17.6673    117.10    116.55    -27.67     16.68
   17.6774    115.32    116.80    -29.70     16.68
   17.6876    115.17    117.07    -30.12     16.68
   17.6978    115.43    117.34    -30.14     16.68
   17.7079    115.30    117.63    -30.55     16.68
   17.7181    117.90    117.93    -28.25     16.68
   17.7283    119.26    118.24    -27.20     16.68
   17.7384    116.99    118.56    -29.79     16.68
   17.7486    118.50    118.90    -28.62     16.67
   17.7587    119.63    119.25    -27.84     16.67
   17.7689    118.37    119.62    -29.47     16.67
   17.7791    120.53    120.01    -27.70     16.67
   17.7892    121.08    120.41    -27.56     16.67
   17.7994    121.98    120.84    -27.08     16.67
   17.8096    122.57    121.29    -26.94     16.67
   17.8197    121.74    121.76    -28.24     16.66
   17.8299    122.34    122.26    -28.14     16.66
   17.8401    122.20    122.78    -28.80     16.66
   17.8502    124.47    123.32    -27.07     16.66
   17.8604    124.63    123.89    -27.49     16.66
   17.8706    124.36    124.50    -28.36     16.66
   17.8807    126.15    125.13    -27.20     16.66
   17.8909    128.13    125.79    -25.88     16.66
   17.9010    127.12    126.49    -27.59     16.65
   17.9112    130.35    127.22    -25.09     16.65
   17.9214    128.79    127.99    -27.42     16.65
   17.9315    129.34    128.79    -27.67     16.65
   17.9417    132.56    129.64    -25.30     16.65
   17.9519    131.74    130.52    -27.01     16.65
   17.9620    133.54    131.44    -26.12     16.65
   17.9722    134.09    132.41    -26.55     16.65
   17.9824    133.13    133.43    -28.52     16.64
   17.9925    135.71    134.48    -26.99     16.64
   18.0027    135.45    135.59    -28.36     16.64
   18.0129    137.84    136.74    -27.13     16.64
   18.0230    139.26    137.94    -26.90     16.64
   18.0332    139.01    139.19    -28.40     16.64
   18.0434    141.03    140.50    -27.69     16.64
   18.0535    140.98    141.84    -29.08     16.64
   18.0637    144.60    143.25    -26.88     16.63
   18.0738    143.99    144.70    -28.94     16.63
   18.0840    145.71    146.22    -28.74     16.63
   18.0942    148.61    147.80    -27.41     16.63
   18.1043    148.12    149.41    -29.52     16.63
   18.1145    148.65    151.10    -30.67     16.63
   18.1247    153.98    152.84    -27.08     16.63
   18.1348    153.50    154.62    -29.35     16.63
   18.1450    153.82    156.48    -30.88     16.62
   18.1552    156.37    158.39    -30.24     16.62
   18.1653    158.44    160.34    -30.12     16.62
   18.1755    159.77    162.36    -30.82     16.62
   18.1857    161.60    164.44    -31.06     16.62
   18.1958    163.31    166.55    -31.47     16.62
   18.2060    164.35    168.74    -32.61     16.62
   18.2161    168.22    170.96    -30.96     16.62
   18.2263    170.77    173.25    -30.70     16.61
   18.2365    171.51    175.58    -32.30     16.61
   18.2466    176.00    177.95    -30.17     16.61
   18.2568    177.58    180.38    -31.02     16.61
   18.2670    179.43    182.86    -31.65     16.61
   18.2771    185.62    185.35    -27.95     16.61
   18.2873    184.68    187.91    -31.45     16.61
   18.2975    185.65    190.50    -33.07     16.60
   18.3076    190.01    193.10    -31.31     16.60
   18.3178    193.24    195.76    -30.74     16.60
   18.3280    195.41    198.44    -31.25     16.60
   18.3381    200.35    201.12    -28.99     16.60
   18.3483    201.70    203.84    -30.36     16.60
   18.3585    200.68    206.58    -34.12     16.60
   18.3686    206.38    209.30    -31.14     16.60
   18.3788    209.71    212.05    -30.56     16.59
   18.3889    210.30    214.78    -32.70     16.59
   18.3991    218.37    217.53    -27.38     16.59
   18.4093    218.55    220.26    -29.93     16.59
   18.4194    220.78    222.95    -30.40     16.59
   18.4296    223.44    225.65    -30.43     16.59
   18.4398    228.37    228.31    -28.16     16.59
   18.4499    229.77    230.91    -29.37     16.59
   18.4601    233.52    233.50    -28.20     16.58
   18.4703    238.44    236.03    -25.81     16.58
   18.4804    238.58    238.48    -28.12     16.58
   18.4906    243.30    240.88    -25.80     16.58
   18.5008    246.52    243.21    -24.91     16.58
   18.5109    244.59    245.44    -29.07     16.58
   18.5211    252.73    247.59    -23.08     16.58
   18.5312    254.03    249.63    -23.82     16.58
   18.5414    254.60    251.58    -25.20     16.57
   18.5516    257.43    253.41    -24.20     16.57
   18.5617    259.56    255.10    -23.76     16.57
   18.5719    262.61    256.68    -22.29     16.57
   18.5821    265.68    258.12    -20.66     16.57
   18.5922    268.05    259.40    -19.57     16.57
   18.6024    266.70    260.54    -22.06     16.57
   18.6126    265.85    261.52    -23.90     16.57
   18.6227    268.16    262.34    -22.40     16.56
   18.6329    267.54    262.99    -23.67     16.56
   18.6431    271.18    263.47    -20.51     16.56
   18.6532    271.67    263.78    -20.33     16.56
   18.6634    270.21    263.91    -21.92     16.56
   18.6736    270.65    263.86    -21.43     16.56
   18.6837    271.26    263.64    -20.60     16.56
   18.6939    266.80    263.24    -24.66     16.56
   18.7040    269.89    262.67    -21.01     16.55
   18.7142    267.84    261.93    -22.31     16.55
   18.7244    262.98    261.02    -26.26     16.55
   18.7345    262.43    259.95    -25.74     16.55
   18.7447    265.32    258.71    -21.62     16.55
   18.7549    258.50    257.33    -27.05     16.55
   18.7650    259.65    255.81    -24.38     16.55
   18.7752    256.59    254.13    -25.76     16.54
   18.7854    252.16    252.32    -28.38     16.54
   18.7955    248.96    250.41    -29.67     16.54
   18.8057    249.96    248.36    -26.62     16.54
   18.8159    243.51    246.20    -30.92     16.54
   18.8260    244.43    243.97    -27.76     16.54
   18.8362    241.05    241.62    -28.79     16.54
   18.8463    235.68    239.21    -31.75     16.54
   18.8565    231.62    236.70    -33.30     16.53
   18.8667    231.09    234.13    -31.26     16.53
   18.8768    225.39    231.52    -34.35     16.53
   18.8870    225.60    228.83    -31.45     16.53
   18.8972    221.16    226.10    -33.16     16.53
   18.9073    215.63    223.36    -35.95     16.53
   18.9175    214.12    220.57    -34.67     16.53
   18.9277    211.63    217.75    -34.34     16.53
   18.9378    207.20    214.94    -35.96     16.52
   18.9480    204.41    212.10    -35.91     16.52
   18.9582    203.72    209.25    -33.75     16.52
   18.9683    199.05    206.43    -35.60     16.52
   18.9785    196.55    203.59    -35.26     16.52
   18.9887    194.23    200.76    -34.75     16.52
   18.9988    189.31    197.97    -36.89     16.52
   19.0090    187.78    195.18    -35.63     16.52
   19.0191    186.51    192.45    -34.16     16.51
   19.0293    182.70    189.71    -35.23     16.51
   19.0395    181.88    187.01    -33.35     16.51
   19.0496    177.60    184.37    -34.99     16.51
   19.0598    175.68    181.74    -34.28     16.51
   19.0700    174.47    179.16    -32.91     16.51
   19.0801    171.10    176.65    -33.77     16.51
   19.0903    169.73    174.16    -32.65     16.51
   19.1005    168.64    171.72    -31.30     16.50
   19.1106    166.80    169.35    -30.78     16.50
   19.1208    163.74    167.02    -31.50     16.50
   19.1310    163.82    164.74    -29.15     16.50
   19.1411    159.90    162.55    -30.87     16.50
   19.1513    157.66    160.38    -30.95     16.50
   19.1614    157.12    158.30    -29.40     16.50
   19.1716    155.92    156.26    -28.56     16.49
   19.1818    153.30    154.28    -29.20     16.49
   19.1919    152.29    152.38    -28.31     16.49
   19.2021    151.53    150.53    -27.22     16.49
   19.2123    149.66    148.73    -27.30     16.49
   19.2224    148.65    147.02    -26.59     16.49
   19.2326    147.62    145.35    -25.95     16.49
   19.2428    146.07    143.75    -25.90     16.49
   19.2529    147.43    142.22    -23.01     16.48
   19.2631    144.32    140.74    -24.64     16.48
   19.2733    143.03    139.32    -24.51     16.48
   19.2834    143.76    137.98    -22.44     16.48
   19.2936    141.39    136.68    -23.51     16.48
   19.3038    140.99    135.44    -22.67     16.48
   19.3139    139.79    134.27    -22.71     16.48
   19.3241    140.45    133.15    -20.92     16.48
   19.3342    138.76    132.10    -21.56     16.47
   19.3444    137.60    131.09    -21.71     16.47
   19.3546    136.41    130.14    -21.95     16.47
   19.3647    135.63    129.24    -21.84     16.47
   19.3749    135.32    128.40    -21.30     16.47
   19.3851    133.38    127.60    -22.44     16.47
   19.3952    133.02    126.86    -22.06     16.47
   19.4054    133.88    126.16    -20.50     16.47
   19.4156    132.38    125.51    -21.35     16.46
   19.4257    133.18    124.91    -19.96     16.46
   19.4359    130.28    124.35    -22.30     16.46
   19.4461    130.94    123.84    -21.12     16.46
   19.4562    129.48    123.37    -22.11     16.46
   19.4664    130.41    122.94    -20.75     16.46
   19.4765    131.00    122.55    -19.77     16.46
   19.4867    128.51    122.19    -21.90     16.46
   19.4969    129.25    121.87    -20.84     16.45
   19.5070    126.67    121.59    -23.14     16.45
   19.5172    128.85    121.34    -20.71     16.45
   19.5274    128.36    121.12    -20.99     16.45
   19.5375    128.53    120.94    -20.63     16.45
   19.5477    126.00    120.79    -23.01     16.45
   19.5579    126.37    120.66    -22.51     16.45
   19.5680    128.04    120.57    -20.75     16.45
   19.5782    124.53    120.50    -24.19     16.44
   19.5884    126.51    120.46    -22.17     16.44
   19.5985    125.24    120.44    -23.42     16.44
   19.6087    125.53    120.44    -23.13     16.44
   19.6188    126.55    120.47    -22.14     16.44
   19.6290    123.97    120.52    -24.77     16.44
   19.6392    123.20    120.59    -25.61     16.44
   19.6493    124.82    120.68    -24.08     16.43
   19.6595    124.83    120.79    -24.18     16.43
   19.6697    123.90    120.92    -25.24     16.43
   19.6798    123.76    121.06    -25.52     16.43
   19.6900    123.83    121.22    -25.62     16.43
   19.7002    123.16    121.40    -26.46     16.43
   19.7103    124.54    121.59    -25.27     16.43
   19.7205    124.82    121.80    -25.20     16.43
   19.7307    124.44    122.02    -25.80     16.42
   19.7408    125.30    122.25    -25.17     16.42
   19.7510    123.09    122.50    -27.63     16.42
   19.7612    125.48    122.75    -25.49     16.42
   19.7713    124.16    123.02    -27.08     16.42
   19.7815    124.13    123.29    -27.39     16.42
   19.7916    123.79    123.58    -28.01     16.42
   19.8018    123.10    123.88    -29.00     16.42
   19.8120    122.45    124.18    -29.95     16.41
   19.8221    124.66    124.49    -28.05     16.41
   19.8323    124.04    124.81    -28.99     16.41
   19.8425    123.92    125.14    -29.44     16.41
   19.8526    122.24    125.47    -31.45     16.41
   19.8628    123.01    125.81    -31.02     16.41
   19.8730    124.43    126.16    -29.95     16.41
   19.8831    122.74    126.50    -31.99     16.41
   19.8933    123.96    126.86    -31.12     16.40
   19.9035    124.95    127.22    -30.49     16.40
   19.9136    123.81    127.58    -31.99     16.40
   19.9238    125.77    127.95    -30.40     16.40
   19.9339    122.51    128.31    -34.02     16.40
   19.9441    123.89    128.69    -33.02     16.40
   19.9543    124.81    129.06    -32.47     16.40
   19.9644    124.94    129.43    -32.71     16.40
   19.9746    124.29    129.81    -33.74     16.39
   19.9848    125.91    130.19    -32.50     16.39
   19.9949    126.75    130.56    -32.04     16.39
   20.0051    125.18    130.94    -33.98     16.39
   20.0153    125.58    131.32    -33.96     16.39
   20.0254    127.77    131.70    -32.15     16.39
   20.0356    126.32    132.07    -33.97     16.39
   20.0458    126.54    132.45    -34.13     16.39
   20.0559    127.04    132.82    -34.00     16.38
   20.0661    126.91    133.19    -34.50     16.38
   20.0763    128.50    133.56    -33.28     16.38
   20.0864    127.80    133.92    -34.34     16.38
   20.0966    127.50    134.28    -35.00     16.38
   20.1067    129.29    134.64    -33.57     16.38
   20.1169    128.94    134.99    -34.27     16.38
   20.1271    129.17    135.34    -34.39     16.37
   20.1372    129.48    135.68    -34.42     16.37
   20.1474    130.38    136.02    -33.86     16.37
   20.1576    130.72    136.35    -33.85     16.37
   20.1677    130.59    136.67    -34.30     16.37
   20.1779    132.72    136.99    -32.49     16.37
   20.1881    129.63    137.30    -35.90     16.37
   20.1982    132.54    137.61    -33.29     16.37
   20.2084    132.07    137.90    -34.05     16.36
   20.2186    133.83    138.19    -32.58     16.36
   20.2287    133.85    138.47    -32.84     16.36
   20.2389    134.19    138.74    -32.77     16.36
   20.2490    133.84    139.00    -33.38     16.36
   20.2592    138.24    139.25    -29.23     16.36
   20.2694    136.61    139.49    -31.10     16.36
   20.2795    134.71    139.72    -33.23     16.36
   20.2897    136.03    139.94    -32.13     16.35
   20.2999    135.09    140.15    -33.28     16.35
   20.3100    137.05    140.35    -31.52     16.35
   20.3202    136.20    140.53    -32.56     16.35
   20.3304    139.86    140.71    -29.07     16.35
   20.3405    138.41    140.87    -30.68     16.35
   20.3507    138.82    141.02    -30.42     16.35
   20.3609    139.71    141.15    -29.67     16.35
   20.3710    138.54    141.28    -30.96     16.34
   20.3812    140.62    141.39    -28.99     16.34
   20.3914    139.80    141.48    -29.90     16.34
   20.4015    140.80    141.56    -28.99     16.34
   20.4117    141.60    141.63    -28.26     16.34
   20.4218    143.42    141.69    -26.49     16.34
   20.4320    143.55    141.73    -26.40     16.34
   20.4422    142.66    141.76    -27.32     16.34
   20.4523    142.68    141.77    -27.31     16.33
   20.4625    143.33    141.77    -26.66     16.33
   20.4727    145.75    141.75    -24.22     16.33
   20.4828    143.25    141.72    -26.69     16.33
   20.4930    143.80    141.68    -26.10     16.33
   20.5032    145.04    141.62    -24.80     16.33
   20.5133    145.00    141.54    -24.77     16.33
   20.5235    144.68    141.46    -25.00     16.32
   20.5337    147.15    141.35    -22.43     16.32
   20.5438    146.25    141.24    -23.21     16.32
   20.5540    145.54    141.11    -23.79     16.32
   20.5641    147.30    140.97    -21.89     16.32
   20.5743    147.84    140.81    -21.19     16.32
   20.5845    144.85    140.64    -24.01     16.32
   20.5946    147.12    140.45    -21.56     16.32
   20.6048    146.50    140.26    -21.98     16.31
   20.6150    145.38    140.05    -22.89     16.31
   20.6251    147.12    139.83    -20.93     16.31
   20.6353    145.14    139.59    -22.67     16.31
   20.6455    144.73    139.35    -22.84     16.31
   20.6556    143.44    139.09    -23.87     16.31
   20.6658    145.73    138.82    -21.31     16.31
   20.6760    144.09    138.54    -22.67     16.31
   20.6861    144.78    138.25    -21.69     16.30
   20.6963    142.38    137.95    -23.79     16.30
   20.7065    143.41    137.64    -22.45     16.30
   20.7166    143.42    137.32    -22.12     16.30
   20.7268    143.41    136.98    -21.80     16.30
   20.7369    141.23    136.65    -23.64     16.30
   20.7471    141.75    136.30    -22.77     16.30
   20.7573    140.43    135.94    -23.73     16.30
   20.7674    139.19    135.58    -24.61     16.29
   20.7776    141.88    135.21    -21.55     16.29
   20.7878    142.09    134.83    -20.96     16.29
   20.7979    140.60    134.44    -22.07     16.29
   20.8081    139.95    134.05    -22.32     16.29
   20.8183    137.34    133.65    -24.54     16.29
   20.8284    137.03    133.25    -24.45     16.29
   20.8386    138.09    132.84    -22.98     16.29
   20.8488    135.20    132.43    -25.45     16.28
   20.8589    131.76    132.02    -28.48     16.28
   20.8691    134.36    131.59    -25.45     16.28
   20.8792    135.19    131.17    -24.20     16.28
   20.8894    131.15    130.74    -27.81     16.28
   20.8996    132.52    130.31    -26.01     16.28
   20.9097    133.12    129.88    -24.98     16.28
   20.9199    131.42    129.44    -26.24     16.28
   20.9301    129.85    129.00    -27.38     16.27
   20.9402    129.54    128.57    -27.25     16.27
   20.9504    127.32    128.13    -29.03     16.27
   20.9606    128.92    127.69    -26.99     16.27
   20.9707    128.43    127.25    -27.04     16.27
   20.9809    126.91    126.81    -28.12     16.27
   20.9911    126.29    126.37    -28.30     16.27
   21.0012    126.30    125.93    -27.85     16.26
   21.0114    126.02    125.49    -27.70     16.26
   21.0216    122.81    125.06    -30.47     16.26
   21.0317    124.94    124.63    -27.91     16.26
   21.0419    121.51    124.19    -30.91     16.26
   21.0520    122.02    123.77    -29.97     16.26
   21.0622    122.94    123.34    -28.62     16.26
   21.0724    121.19    122.92    -29.95     16.26
   21.0825    121.65    122.50    -29.07     16.25
   21.0927    120.32    122.09    -29.99     16.25
   21.1029    118.76    121.67    -31.14     16.25
   21.1130    119.59    121.27    -29.90     16.25
   21.1232    119.29    120.87    -29.80     16.25
   21.1334    118.86    120.47    -29.83     16.25
   21.1435    117.24    120.08    -31.07     16.25
   21.1537    117.10    119.70    -30.82     16.25
   21.1639    116.04    119.32    -31.50     16.24
   21.1740    116.41    118.95    -30.77     16.24
   21.1842    116.34    118.59    -30.47     16.24
   21.1943    113.48    118.23    -32.98     16.24
   21.2045    115.24    117.88    -30.87     16.24
   21.2147    114.20    117.54    -31.56     16.24
   21.2248    113.36    117.21    -32.07     16.24
   21.2350    113.85    116.89    -31.26     16.24
   21.2452    113.46    116.57    -31.33     16.23
   21.2553    112.83    116.27    -31.66     16.23
   21.2655    113.29    115.97    -30.90     16.23
   21.2757    113.52    115.68    -30.39     16.23
   21.2858    112.94    115.41    -30.69     16.23
   21.2960    113.37    115.14    -30.00     16.23
   21.3062    112.55    114.89    -30.56     16.23
   21.3163    110.54    114.65    -32.33     16.23
   21.3265    112.22    114.41    -30.42     16.22
   21.3366    112.12    114.20    -30.30     16.22
   21.3468    110.85    113.99    -31.36     16.22
   21.3570    112.18    113.79    -29.83     16.22
   21.3671    111.75    113.61    -30.08     16.22
   21.3773    111.04    113.44    -30.62     16.22
   21.3875    110.82    113.28    -30.69     16.22
   21.3976    111.99    113.14    -29.38     16.22
   21.4078    111.27    113.01    -29.97     16.21
   21.4180    110.56    112.90    -30.56     16.21
   21.4281    110.93    112.80    -30.09     16.21
   21.4383    110.38    112.72    -30.56     16.21
   21.4485    111.43    112.65    -29.44     16.21
   21.4586    111.69    112.59    -29.13     16.21
   21.4688    110.30    112.56    -30.48     16.21
   21.4790    111.06    112.53    -29.70     16.20
   21.4891    110.78    112.53    -29.97     16.20
   21.4993    111.59    112.54    -29.17     16.20
   21.5094    111.85    112.57    -28.94     16.20
   21.5196    111.46    112.61    -29.37     16.20
   21.5298    110.23    112.68    -30.67     16.20
   21.5399    111.90    112.75    -29.08     16.20
   21.5501    111.23    112.85    -29.84     16.20
   21.5603    109.86    112.97    -31.33     16.19
   21.5704    111.73    113.10    -29.59     16.19
   21.5806    111.45    113.26    -30.03     16.19
   21.5908    113.57    113.43    -28.08     16.19
   21.6009    111.71    113.62    -30.13     16.19
   21.6111    111.30    113.83    -30.75     16.19
   21.6213    110.90    114.06    -31.38     16.19
   21.6314    113.15    114.30    -29.37     16.19
   21.6416    112.75    114.57    -30.04     16.18
   21.6517    112.21    114.86    -30.87     16.18
   21.6619    113.57    115.16    -29.81     16.18
   21.6721    114.41    115.49    -29.30     16.18
   21.6822    112.80    115.83    -31.26     16.18
   21.6924    115.57    116.20    -28.85     16.18
   21.7026    115.36    116.59    -29.45     16.18
   21.7127    115.96    116.99    -29.26     16.18
   21.7229    116.47    117.42    -29.17     16.17
   21.7331    117.31    117.87    -28.78     16.17
   21.7432    118.42    118.33    -28.14     16.17
   21.7534    118.38    118.82    -28.66     16.17
   21.7636    120.40    119.33    -27.15     16.17
   21.7737    117.84    119.85    -30.24     16.17
   21.7839    119.30    120.40    -29.32     16.17
   21.7941    121.61    120.97    -27.58     16.17
   21.8042    121.24    121.55    -28.53     16.16
   21.8144    121.17    122.16    -29.21     16.16
   21.8245    124.12    122.78    -26.88     16.16
   21.8347    123.93    123.43    -27.72     16.16
   21.8449    125.36    124.09    -26.95     16.16
   21.8550    127.29    124.77    -25.70     16.16
   21.8652    125.48    125.47    -28.21     16.16
   21.8754    127.44    126.19    -26.97     16.15
   21.8855    127.61    126.92    -27.53     16.15
   21.8957    127.20    127.67    -28.69     16.15
   21.9059    130.04    128.44    -26.62     16.15
   21.9160    129.68    129.22    -27.76     16.15
   21.9262    129.62    130.02    -28.62     16.15
   21.9364    132.59    130.84    -26.47     16.15
   21.9465    132.82    131.66    -27.07     16.15
   21.9567    134.18    132.51    -26.55     16.14
   21.9668    133.34    133.37    -28.25     16.14
   21.9770    134.38    134.24    -28.08     16.14
   21.9872    133.90    135.13    -29.45     16.14
   21.9973    138.08    136.02    -26.16     16.14
   22.0075    138.51    136.93    -26.64     16.14
   22.0177    137.91    137.85    -28.16     16.14
   22.0278    138.70    138.77    -28.29     16.14
   22.0380    141.47    139.71    -26.46     16.13
   22.0482    140.04    140.65    -28.84     16.13
   22.0583    143.45    141.60    -26.37     16.13
   22.0685    142.27    142.56    -28.51     16.13
   22.0787    143.08    143.52    -28.66     16.13
   22.0888    146.47    144.48    -26.23     16.13
   22.0990    147.91    145.45    -25.77     16.13
   22.1092    146.40    146.43    -28.25     16.13
   22.1193    147.10    147.39    -28.52     16.12
   22.1295    151.96    148.37    -24.63     16.12
   22.1396    150.38    149.33    -27.17     16.12
   22.1498    151.18    150.30    -27.35     16.12
   22.1600    151.98    151.27    -27.51     16.12
   22.1701    152.61    152.22    -27.83     16.12
   22.1803    154.63    153.18    -26.77     16.12
   22.1905    155.58    154.12    -26.76     16.12
   22.2006    154.99    155.05    -28.28     16.11
   22.2108    158.26    155.98    -25.94     16.11
   22.2210    159.65    156.89    -25.46     16.11
   22.2311    159.18    157.78    -26.82     16.11
   22.2413    161.51    158.66    -25.38     16.11
   22.2515    163.16    159.53    -24.59     16.11
   22.2616    161.81    160.37    -26.78     16.11
   22.2718    162.64    161.20    -26.78     16.11
   22.2819    166.21    161.99    -24.01     16.10
   22.2921    164.87    162.77    -26.13     16.10
   22.3023    166.30    163.53    -25.45     16.10
   22.3124    166.76    164.25    -25.71     16.10
   22.3226    166.65    164.95    -26.52     16.10
   22.3328    168.03    165.62    -25.81     16.10
   22.3429    168.20    166.25    -26.27     16.10
   22.3531    168.86    166.86    -26.22     16.09
   22.3633    169.62    167.42    -26.03     16.09
   22.3734    169.86    167.95    -26.31     16.09
   22.3836    168.88    168.44    -27.79     16.09
   22.3938    172.11    168.90    -25.01     16.09
   22.4039    174.02    169.31    -23.51     16.09
   22.4141    169.93    169.68    -27.97     16.09
   22.4243    171.64    170.01    -26.59     16.09
   22.4344    172.23    170.29    -26.28     16.08
   22.4446    169.90    170.52    -28.85     16.08
   22.4547    173.61    170.71    -25.33     16.08
   22.4649    172.62    170.86    -26.46     16.08
   22.4751    172.00    170.95    -27.18     16.08
   22.4852    174.01    171.00    -25.21     16.08
   22.4954    171.18    171.00    -28.04     16.08
   22.5056    171.21    170.95    -27.96     16.08
   22.5157    173.01    170.85    -26.07     16.07
   22.5259    171.07    170.71    -27.86     16.07
   22.5361    168.89    170.51    -29.84     16.07
   22.5462    168.43    170.26    -30.06     16.07
   22.5564    169.33    169.97    -28.86     16.07
   22.5666    166.63    169.63    -31.22     16.07
   22.5767    170.66    169.24    -26.80     16.07
   22.5869    168.96    168.81    -28.07     16.07
   22.5970    165.23    168.33    -31.32     16.06
   22.6072    167.45    167.80    -28.57     16.06
   22.6174    167.59    167.23    -27.86     16.06
   22.6275    165.38    166.62    -29.47     16.06
   22.6377    164.11    165.97    -30.08     16.06
   22.6479    163.63    165.27    -29.87     16.06
   22.6580    161.20    164.55    -31.57     16.06
   22.6682    161.73    163.78    -30.27     16.06
   22.6784    161.50    162.97    -29.69     16.05
   22.6885    157.89    162.14    -32.47     16.05
   22.6987    158.62    161.26    -30.87     16.05
   22.7089    158.82    160.36    -29.76     16.05
   22.7190    156.11    159.43    -31.54     16.05
   22.7292    157.68    158.47    -29.01     16.05
   22.7394    156.70    157.48    -29.00     16.05
   22.7495    153.60    156.48    -31.10     16.05
   22.7597    152.95    155.44    -30.71     16.04
   22.7698    153.91    154.39    -28.70     16.04
   22.7800    149.80    153.31    -31.73     16.04
   22.7902    149.95    152.21    -30.49     16.04
   22.8003    148.97    151.11    -30.36     16.04
   22.8105    145.29    149.98    -32.91     16.04
   22.8207    145.97    148.84    -31.09     16.04
   22.8308    145.57    147.69    -30.34     16.03
   22.8410    143.01    146.53    -31.74     16.03
   22.8512    143.55    145.35    -30.02     16.03
   22.8613    142.37    144.17    -30.03     16.03
   22.8715    141.19    142.98    -30.01     16.03
   22.8817    139.43    141.78    -30.57     16.03
   22.8918    137.59    140.59    -31.22     16.03
   22.9020    138.73    139.39    -28.88     16.03
   22.9121    137.73    138.19    -28.68     16.02
   22.9223    135.78    136.98    -29.42     16.02
   22.9325    133.97    135.77    -30.02     16.02
   22.9426    134.29    134.57    -28.50     16.02
   22.9528    131.35    133.36    -30.24     16.02
   22.9630    130.12    132.16    -30.26     16.02
   22.9731    130.80    130.97    -28.39     16.02
   22.9833    128.60    129.77    -29.40     16.02
   22.9935    127.94    128.58    -28.86     16.01
   23.0036    127.10    127.41    -28.53     16.01
   23.0138    126.48    126.23    -27.97     16.01
   23.0240    125.29    125.06    -27.99     16.01
   23.0341    124.60    123.91    -27.53     16.01
   23.0443    122.50    122.76    -28.48     16.01
   23.0545    119.92    121.62    -29.92     16.01
   23.0646    120.12    120.49    -28.60     16.01
   23.0748    119.63    119.37    -27.96     16.00
   23.0849    118.65    118.27    -27.84     16.00
   23.0951    117.46    117.17    -27.93     16.00
   23.1053    117.22    116.09    -27.09     16.00
   23.1154    114.46    115.02    -28.78     16.00
   23.1256    114.59    113.96    -27.59     16.00
   23.1358    114.62    112.91    -26.51     16.00
   23.1459    114.48    111.89    -25.63     16.00
   23.1561    112.09    110.87    -27.00     15.99
   23.1663    109.69    109.86    -28.39     15.99
   23.1764    109.95    108.88    -27.15     15.99
   23.1866    110.48    107.90    -25.65     15.99
   23.1968    109.51    106.94    -25.65     15.99
   23.2069    108.01    106.01    -26.22     15.99
   23.2171    106.46    105.07    -26.84     15.99
   23.2272    106.02    104.17    -26.37     15.98
   23.2374    107.21    103.27    -24.28     15.98
   23.2476    104.47    102.38    -26.14     15.98
   23.2577    103.54    101.52    -26.21     15.98
   23.2679    103.45    100.67    -25.44     15.98
   23.2781    103.02     99.84    -25.04     15.98
   23.2882    100.80     99.02    -26.45     15.98
   23.2984    101.39     98.22    -25.05     15.98
   23.3086    100.63     97.43    -25.02     15.97
   23.3187    100.14     96.66    -24.75     15.97
   23.3289     98.19     95.91    -25.94     15.97
   23.3391     98.35     95.16    -25.04     15.97
   23.3492     98.02     94.45    -24.65     15.97
   23.3594     95.74     93.73    -26.22     15.97
   23.3695     96.15     93.05    -25.12     15.97
   23.3797     96.04     92.37    -24.55     15.97
   23.3899     96.07     91.70    -23.85     15.96
   23.4000     94.51     91.06    -24.77     15.96
   23.4102     94.71     90.42    -23.93     15.96
   23.4204     94.57     89.80    -23.45     15.96
   23.4305     91.66     89.20    -25.76     15.96
   23.4407     92.02     88.61    -24.81     15.96
   23.4509     90.82     88.03    -25.43     15.96
   23.4610     91.66     87.47    -24.04     15.96
   23.4712     90.41     86.92    -24.74     15.95
   23.4814     89.24     86.39    -25.37     15.95
   23.4915     89.85     85.87    -24.24     15.95
   23.5017     87.21     85.36    -26.37     15.95
   23.5119     88.02     84.86    -25.06     15.95
   23.5220     86.69     84.38    -25.91     15.95
   23.5322     87.45     83.90    -24.68     15.95
   23.5423     86.37     83.45    -25.30     15.95
   23.5525     85.87     83.00    -25.35     15.94
   23.5627     85.26     82.56    -25.52     15.94
   23.5728     84.42     82.14    -25.94     15.94
   23.5830     84.45     81.72    -25.49     15.94
   23.5932     82.83     81.32    -26.71     15.94
   23.6033     83.04     80.92    -26.11     15.94
   23.6135     82.87     80.54    -25.89     15.94
   23.6237     81.82     80.16    -26.57     15.94
   23.6338     80.05     79.80    -27.98     15.93
   23.6440     81.93     79.45    -25.74     15.93
   23.6542     82.15     79.10    -25.17     15.93
   23.6643     80.84     78.77    -26.15     15.93
   23.6745     81.24     78.44    -25.42     15.93
   23.6846     79.62     78.12    -26.72     15.93
   23.6948     79.29     77.81    -26.74     15.93
   23.7050     79.98     77.50    -25.75     15.92
   23.7151     79.26     77.21    -26.17     15.92
   23.7253     76.90     76.92    -28.24     15.92
   23.7355     77.18     76.64    -27.68     15.92
   23.7456     78.12     76.37    -26.47     15.92
   23.7558     78.26     76.10    -26.06     15.92
   23.7660     76.94     75.84    -27.12     15.92
   23.7761     76.34     75.58    -27.47     15.92
   23.7863     75.54     75.33    -28.02     15.91
   23.7965     76.21     75.09    -27.10     15.91
   23.8066     75.79     74.86    -27.29     15.91
   23.8168     75.74     74.62    -27.11     15.91
   23.8270     74.91     74.40    -27.71     15.91
   23.8371     75.88     74.18    -26.52     15.91
   23.8473     73.95     73.96    -28.23     15.91
   23.8574     74.58     73.75    -27.39     15.91
   23.8676     74.21     73.54    -27.56     15.90
   23.8778     73.52     73.34    -28.04     15.90
   23.8879     71.74     73.15    -29.63     15.90
   23.8981     71.44     72.95    -29.73     15.90
   23.9083     72.74     72.76    -28.24     15.90
   23.9184     71.40     72.58    -29.40     15.90
   23.9286     70.98     72.39    -29.64     15.90
   23.9388     70.80     72.22    -29.64     15.90
   23.9489     72.24     72.04    -28.02     15.89
   23.9591     70.94     71.87    -29.15     15.89
   23.9693     69.98     71.70    -29.94     15.89
   23.9794     69.79     71.54    -29.97     15.89
   23.9896     70.20     71.37    -29.39     15.89
   23.9997     69.15     71.21    -30.29     15.89
   24.0099     69.99     71.06    -29.29     15.89
   24.0201     70.80     70.90    -28.32     15.89
   24.0302     69.43     70.75    -29.54     15.88
   24.0404     69.14     70.60    -29.68     15.88
   24.0506     68.20     70.45    -30.47     15.88
   24.0607     68.05     70.31    -30.48     15.88
   24.0709     68.60     70.16    -29.78     15.88
   24.0811     66.15     70.02    -32.09     15.88
   24.0912     67.62     69.88    -30.48     15.88
   24.1014     66.76     69.75    -31.21     15.88
   24.1116     66.20     69.61    -31.63     15.87
   24.1217     66.90     69.48    -30.80     15.87
   24.1319     67.45     69.34    -30.12     15.87
   24.1421     65.83     69.21    -31.60     15.87
   24.1522     65.87     69.08    -31.44     15.87
   24.1624     67.14     68.96    -30.04     15.87
   24.1725     66.78     68.83    -30.27     15.87
   24.1827     66.11     68.71    -30.82     15.86
   24.1929     65.52     68.58    -31.28     15.86
   24.2030     67.15     68.46    -29.53     15.86
   24.2132     63.96     68.34    -32.60     15.86
   24.2234     65.73     68.22    -30.71     15.86
   24.2335     64.98     68.10    -31.34     15.86
   24.2437     64.45     67.98    -31.75     15.86
   24.2539     64.39     67.86    -31.70     15.86
   24.2640     64.11     67.75    -31.86     15.85
   24.2742     65.15     67.63    -30.71     15.85
   24.2844     63.95     67.52    -31.79     15.85
   24.2945     64.26     67.41    -31.37     15.85
   24.3047     64.81     67.30    -30.71     15.85
   24.3148     63.60     67.18    -31.81     15.85
   24.3250     64.03     67.07    -31.27     15.85
   24.3352     64.35     66.96    -30.84     15.85
   24.3453     62.93     66.86    -32.15     15.84
   24.3555     62.45     66.75    -32.52     15.84
   24.3657     62.78     66.64    -32.08     15.84
   24.3758     63.60     66.53    -31.15     15.84
   24.3860     62.27     66.43    -32.38     15.84
   24.3962     63.53     66.32    -31.01     15.84
   24.4063     62.16     66.22    -32.28     15.84
   24.4165     60.45     66.11    -33.88     15.84
   24.4267     62.21     66.01    -32.02     15.83
   24.4368     61.48     65.90    -32.65     15.83
   24.4470     61.30     65.80    -32.72     15.83
   24.4572     60.95     65.70    -32.97     15.83
   24.4673     62.72     65.60    -31.10     15.83
   24.4775     61.43     65.50    -32.29     15.83
   24.4876     61.66     65.40    -31.96     15.83
   24.4978     61.46     65.30    -32.06     15.83
   24.5080     60.52     65.20    -32.90     15.82
   24.5181     61.95     65.10    -31.37     15.82
   24.5283     60.62     65.00    -32.60     15.82
   24.5385     61.73     64.90    -31.39     15.82
   24.5486     61.73     64.80    -31.29     15.82
   24.5588     59.21     64.70    -33.72     15.82
   24.5690     60.84     64.61    -31.99     15.82
   24.5791     59.59     64.51    -33.14     15.81
   24.5893     61.01     64.41    -31.63     15.81
   24.5995     59.36     64.32    -33.18     15.81
   24.6096     59.05     64.22    -33.39     15.81
   24.6198     59.65     64.13    -32.70     15.81
   24.6299     59.40     64.03    -32.85     15.81
   24.6401     59.65     63.94    -32.51     15.81
   24.6503     59.99     63.84    -32.08     15.81
   24.6604     59.59     63.75    -32.38     15.80
   24.6706     60.93     63.66    -30.95     15.80
   24.6808     58.23     63.56    -33.56     15.80
   24.6909     60.37     63.47    -31.32     15.80
   24.7011     59.36     63.38    -32.24     15.80
   24.7113     59.11     63.29    -32.40     15.80
   24.7214     58.64     63.19    -32.78     15.80
   24.7316     59.06     63.10    -32.26     15.80
   24.7418     58.45     63.01    -32.78     15.79
   24.7519     58.86     62.92    -32.28     15.79
   24.7621     58.68     62.83    -32.37     15.79
   24.7723     58.21     62.74    -32.75     15.79
   24.7824     59.16     62.65    -31.71     15.79
   24.7926     58.52     62.56    -32.26     15.79
   24.8027     57.77     62.47    -32.92     15.79
   24.8129     57.48     62.38    -33.12     15.79
   24.8231     57.75     62.29    -32.76     15.78
   24.8332     58.04     62.20    -32.38     15.78
   24.8434     58.15     62.11    -32.18     15.78
   24.8536     58.15     62.02    -32.10     15.78
   24.8637     57.79     61.94    -32.37     15.78
   24.8739     56.12     61.85    -33.95     15.78
   24.8841     56.86     61.76    -33.12     15.78
   24.8942     56.88     61.67    -33.02     15.78
   24.9044     57.25     61.59    -32.56     15.77
   24.9146     57.19     61.50    -32.53     15.77
   24.9247     57.65     61.41    -31.98     15.77
   24.9349     56.49     61.33    -33.06     15.77
   24.9450     56.56     61.24    -32.90     15.77
   24.9552     55.91     61.15    -33.47     15.77
   24.9654     56.34     61.07    -32.95     15.77
   24.9755     57.36     60.98    -31.84     15.77
   24.9857     56.88     60.90    -32.24     15.76
   24.9959     56.47     60.81    -32.56     15.76
   25.0060     56.43     60.73    -32.52     15.76
   25.0162     56.20     60.64    -32.66     15.76
   25.0264     56.20     60.56    -32.58     15.76
   25.0365     56.65     60.47    -32.05     15.76
   25.0467     56.07     60.39    -32.54     15.76
   25.0569     55.95     60.30    -32.58     15.75
   25.0670     56.31     60.22    -32.13     15.75
   25.0772     56.28     60.14    -32.08     15.75
   25.0874     55.72     60.05    -32.56     15.75
   25.0975     55.04     59.97    -33.15     15.75
   25.1077     56.15     59.89    -31.96     15.75
   25.1178     56.48     59.81    -31.55     15.75
   25.1280     55.87     59.72    -32.07     15.75
   25.1382     56.20     59.64    -31.66     15.74
   25.1483     55.07     59.56    -32.71     15.74
   25.1585     55.58     59.48    -32.12     15.74
   25.1687     55.45     59.39    -32.17     15.74
   25.1788     56.90     59.31    -30.64     15.74
   25.1890     55.83     59.23    -31.62     15.74
   25.1992     54.79     59.15    -32.58     15.74
   25.2093     56.26     59.07    -31.03     15.74
   25.2195     55.31     58.99    -31.90     15.73
   25.2297     55.84     58.91    -31.29     15.73
   25.2398     55.93     58.83    -31.12     15.73
   25.2500     55.07     58.75    -31.90     15.73
   25.2601     54.36     58.67    -32.53     15.73
   25.2703     54.91     58.59    -31.90     15.73
   25.2805     56.74     58.51    -29.99     15.73
   25.2906     56.01     58.43    -30.64     15.73
   25.3008     54.94     58.35    -31.63     15.72
   25.3110     55.10     58.27    -31.39     15.72
   25.3211     54.20     58.19    -32.21     15.72
   25.3313     54.91     58.11    -31.42     15.72
   25.3415     54.59     58.03    -31.66     15.72
   25.3516     54.63     57.95    -31.54     15.72
   25.3618     54.40     57.87    -31.70     15.72
   25.3720     55.01     57.80    -31.01     15.72
   25.3821     55.40     57.72    -30.54     15.71
   25.3923     54.77     57.64    -31.09     15.71
   25.4024     54.80     57.56    -30.98     15.71
   25.4126     53.76     57.48    -31.95     15.71
   25.4228     54.84     57.41    -30.79     15.71
   25.4329     54.29     57.33    -31.26     15.71
   25.4431     54.25     57.25    -31.22     15.71
   25.4533     54.85     57.18    -30.55     15.71
   25.4634     53.47     57.10    -31.85     15.70
   25.4736     54.55     57.02    -30.69     15.70
   25.4838     53.92     56.94    -31.25     15.70
   25.4939     53.07     56.87    -32.02     15.70
   25.5041     54.52     56.79    -30.49     15.70
   25.5143     54.34     56.72    -30.60     15.70
   25.5244     53.38     56.64    -31.48     15.70
   25.5346     53.68     56.56    -31.11     15.69
   25.5448     54.66     56.49    -30.05     15.69
   25.5549     53.21     56.41    -31.43     15.69
   25.5651     54.30     56.34    -30.26     15.69
   25.5752     53.76     56.26    -30.73     15.69
   25.5854     53.77     56.19    -30.64     15.69
   25.5956     54.49     56.11    -29.85     15.69
   25.6057     54.00     56.04    -30.26     15.69
   25.6159     53.94     55.96    -30.25     15.68
   25.6261     52.89     55.89    -31.22     15.68
   25.6362     53.61     55.82    -30.43     15.68
   25.6464     53.09     55.74    -30.87     15.68
   25.6566     54.09     55.67    -29.80     15.68
   25.6667     53.83     55.59    -29.99     15.68
   25.6769     53.89     55.52    -29.85     15.68
   25.6871     53.77     55.45    -29.90     15.68
   25.6972     53.50     55.37    -30.10     15.67
   25.7074     53.81     55.30    -29.71     15.67
   25.7175     53.00     55.23    -30.45     15.67
   25.7277     53.88     55.16    -29.50     15.67
   25.7379     52.58     55.08    -30.72     15.67
   25.7480     53.55     55.01    -29.68     15.67
   25.7582     53.94     54.94    -29.22     15.67
   25.7684     52.43     54.87    -30.66     15.67
   25.7785     51.65     54.79    -31.37     15.66
   25.7887     53.70     54.72    -29.24     15.66
   25.7989     53.49     54.65    -29.38     15.66
   25.8090     51.84     54.58    -30.96     15.66
   25.8192     53.31     54.51    -29.42     15.66
   25.8294     51.48     54.44    -31.18     15.66
   25.8395     52.49     54.36    -30.10     15.66
   25.8497     52.61     54.29    -29.91     15.66
   25.8599     51.21     54.22    -31.23     15.65
   25.8700     51.65     54.15    -30.72     15.65
   25.8802     52.62     54.08    -29.68     15.65
   25.8903     51.26     54.01    -30.97     15.65
   25.9005     52.00     53.94    -30.16     15.65
   25.9107     51.96     53.87    -30.13     15.65
   25.9208     52.49     53.80    -29.53     15.65
   25.9310     52.54     53.73    -29.41     15.64
   25.9412     51.37     53.66    -30.51     15.64
   25.9513     50.91     53.59    -30.91     15.64
   25.9615     52.03     53.52    -29.72     15.64
   25.9717     51.80     53.45    -29.88     15.64
   25.9818     51.41     53.39    -30.20     15.64
   25.9920     52.24     53.32    -29.30     15.64
   26.0022     51.87     53.25    -29.60     15.64
   26.0123     50.51     53.18    -30.89     15.63
   26.0225     52.17     53.11    -29.16     15.63
   26.0326     50.95     53.04    -30.32     15.63
   26.0428     52.68     52.98    -28.52     15.63
   26.0530     51.42     52.91    -29.71     15.63
   26.0631     50.27     52.84    -30.79     15.63
   26.0733     51.01     52.77    -29.99     15.63
   26.0835     50.60     52.71    -30.33     15.63
   26.0936     51.49     52.64    -29.37     15.62
   26.1038     50.93     52.57    -29.86     15.62
   26.1140     50.68     52.50    -30.05     15.62
   26.1241     49.74     52.44    -30.92     15.62
   26.1343     49.97     52.37    -30.62     15.62
   26.1445     50.47     52.31    -30.06     15.62
   26.1546     50.85     52.24    -29.61     15.62
   26.1648     50.15     52.17    -30.25     15.62
   26.1750     49.45     52.11    -30.88     15.61
   26.1851     50.62     52.04    -29.65     15.61
   26.1953     49.71     51.98    -30.49     15.61
   26.2054     50.05     51.91    -30.08     15.61
   26.2156     49.93     51.85    -30.14     15.61
   26.2258     49.68     51.78    -30.32     15.61
   26.2359     49.92     51.72    -30.02     15.61
   26.2461     51.69     51.65    -28.19     15.61
   26.2563     50.66     51.59    -29.15     15.60
   26.2664     49.68     51.53    -30.07     15.60
   26.2766     50.07     51.46    -29.61     15.60
   26.2868     48.71     51.40    -30.91     15.60
   26.2969     49.61     51.33    -29.95     15.60
   26.3071     49.55     51.27    -29.94     15.60
   26.3173     50.47     51.21    -28.96     15.60
   26.3274     49.99     51.15    -29.38     15.60
   26.3376     50.49     51.08    -28.81     15.59
   26.3477     49.80     51.02    -29.44     15.59
   26.3579     50.13     50.96    -29.05     15.59
   26.3681     49.00     50.90    -30.12     15.59
   26.3782     48.93     50.83    -30.13     15.59
   26.3884     49.40     50.77    -29.59     15.59
   26.3986     49.02     50.71    -29.91     15.59
   26.4087     49.69     50.65    -29.18     15.58
   26.4189     48.56     50.59    -30.25     15.58
   26.4291     49.09     50.53    -29.66     15.58
   26.4392     48.27     50.47    -30.42     15.58
   26.4494     48.56     50.41    -30.07     15.58
   26.4596     49.37     50.35    -29.20     15.58
   26.4697     48.74     50.29    -29.77     15.58
   26.4799     48.57     50.23    -29.88     15.58
   26.4901     49.13     50.17    -29.26     15.57
   26.5002     48.19     50.11    -30.14     15.57
   26.5104     48.59     50.05    -29.68     15.57
   26.5205     49.09     49.99    -29.12     15.57
   26.5307     48.54     49.93    -29.61     15.57
   26.5409     48.34     49.87    -29.76     15.57
   26.5510     48.18     49.82    -29.86     15.57
   26.5612     48.32     49.76    -29.66     15.57
   26.5714     47.99     49.70    -29.93     15.56
   26.5815     49.43     49.64    -28.44     15.56
   26.5917     48.20     49.59    -29.61     15.56
   26.6019     47.58     49.53    -30.17     15.56
   26.6120     47.62     49.47    -30.08     15.56
   26.6222     48.76     49.42    -28.88     15.56
   26.6324     48.13     49.36    -29.45     15.56
   26.6425     47.66     49.31    -29.87     15.56
   26.6527     48.79     49.25    -28.68     15.55
   26.6628     48.98     49.20    -28.44     15.55
   26.6730     48.07     49.14    -29.29     15.55
   26.6832     48.55     49.09    -28.76     15.55
   26.6933     47.77     49.03    -29.48     15.55
   26.7035     47.71     48.98    -29.49     15.55
   26.7137     47.04     48.93    -30.11     15.55
   26.7238     47.13     48.87    -29.96     15.55
   26.7340     47.29     48.82    -29.75     15.54
   26.7442     47.34     48.77    -29.65     15.54
   26.7543     48.57     48.72    -28.37     15.54
   26.7645     47.95     48.66    -28.94     15.54
   26.7747     47.55     48.61    -29.28     15.54
   26.7848     47.64     48.56    -29.14     15.54
   26.7950     48.67     48.51    -28.06     15.54
   26.8052     46.84     48.46    -29.84     15.54
   26.8153     47.01     48.41    -29.62     15.53
   26.8255     47.93     48.36    -28.66     15.53
   26.8356     47.17     48.32    -29.37     15.53
   26.8458     47.62     48.27    -28.87     15.53
   26.8560     48.26     48.22    -28.18     15.53
   26.8661     47.60     48.17    -28.79     15.53
   26.8763     46.52     48.13    -29.83     15.53
   26.8865     47.90     48.08    -28.40     15.52
   26.8966     47.63     48.03    -28.63     15.52
   26.9068     47.99     47.99    -28.22     15.52
   26.9170     47.28     47.95    -28.89     15.52
   26.9271     46.50     47.90    -29.62     15.52
   26.9373     47.39     47.86    -28.69     15.52
   26.9475     47.55     47.82    -28.49     15.52
   26.9576     46.76     47.77    -29.24     15.52
   26.9678     47.16     47.73    -28.80     15.51
   26.9779     46.81     47.69    -29.11     15.51
   26.9881     46.71     47.65    -29.17     15.51
   26.9983     47.16     47.61    -28.68     15.51
   27.0084     47.84     47.58    -27.96     15.51
   27.0186     46.12     47.54    -29.64     15.51
   27.0288     47.60     47.50    -28.13     15.51
   27.0389     46.93     47.47    -28.76     15.51
   27.0491     46.57     47.43    -29.09     15.50
   27.0593     47.55     47.40    -28.07     15.50
   27.0694     45.88     47.37    -29.71     15.50
   27.0796     46.99     47.34    -28.57     15.50
   27.0898     46.54     47.31    -28.99     15.50
   27.0999     47.03     47.28    -28.47     15.50
   27.1101     47.26     47.25    -28.21     15.50
   27.1202     47.68     47.22    -27.76     15.50
   27.1304     47.68     47.20    -27.74     15.49
   27.1406     46.82     47.17    -28.57     15.49
   27.1507     46.85     47.15    -28.52     15.49
   27.1609     46.54     47.13    -28.81     15.49
   27.1711     46.74     47.11    -28.59     15.49
   27.1812     46.89     47.09    -28.42     15.49
   27.1914     47.23     47.07    -28.06     15.49
   27.2016     47.25     47.06    -28.03     15.49
   27.2117     46.39     47.04    -28.88     15.48
   27.2219     47.63     47.03    -27.62     15.48
   27.2321     46.49     47.02    -28.75     15.48
   27.2422     46.18     47.01    -29.06     15.48
   27.2524     46.37     47.01    -28.86     15.48
   27.2626     46.76     47.00    -28.46     15.48
   27.2727     47.52     47.00    -27.70     15.48
   27.2829     47.15     47.00    -28.07     15.47
   27.2930     47.07     47.00    -28.15     15.47
   27.3032     46.75     47.01    -28.48     15.47
   27.3134     47.84     47.01    -27.40     15.47
   27.3235     48.22     47.02    -27.03     15.47
   27.3337     46.52     47.04    -28.74     15.47
   27.3439     47.57     47.05    -27.70     15.47
   27.3540     47.87     47.07    -27.42     15.47
   27.3642     46.61     47.09    -28.70     15.46
   27.3744     46.66     47.11    -28.67     15.46
   27.3845     47.25     47.14    -28.11     15.46
   27.3947     46.29     47.17    -29.10     15.46
   27.4049     47.59     47.20    -27.83     15.46
   27.4150     47.36     47.23    -28.10     15.46
   27.4252     48.40     47.27    -27.09     15.46
   27.4353     47.31     47.31    -28.23     15.46
   27.4455     47.98     47.36    -27.60     15.45
   27.4557     47.49     47.41    -28.14     15.45
   27.4658     48.11     47.46    -27.58     15.45
   27.4760     47.09     47.52    -28.65     15.45
   27.4862     46.71     47.58    -29.09     15.45
   27.4963     47.51     47.65    -28.36     15.45
   27.5065     47.45     47.72    -28.49     15.45
   27.5167     47.37     47.79    -28.64     15.45
   27.5268     47.82     47.87    -28.27     15.44
   27.5370     48.04     47.95    -28.13     15.44
   27.5472     47.84     48.04    -28.42     15.44
   27.5573     48.66     48.13    -27.69     15.44
   27.5675     47.14     48.23    -29.31     15.44
   27.5777     48.82     48.33    -27.73     15.44
   27.5878     48.24     48.43    -28.42     15.44
   27.5980     48.11     48.55    -28.66     15.44
   27.6081     48.63     48.66    -28.25     15.43
   27.6183     47.79     48.78    -29.22     15.43
   27.6285     48.04     48.91    -29.09     15.43
   27.6386     48.54     49.04    -28.73     15.43
   27.6488     49.32     49.18    -28.08     15.43
   27.6590     49.98     49.33    -27.57     15.43
   27.6691     49.84     49.47    -27.86     15.43
   27.6793     49.34     49.63    -28.51     15.43
   27.6895     49.76     49.79    -28.25     15.42
   27.6996     50.12     49.96    -28.06     15.42
   27.7098     49.48     50.13    -28.87     15.42
   27.7200     50.37     50.31    -28.16     15.42
   27.7301     49.99     50.49    -28.73     15.42
   27.7403     50.93     50.69    -27.98     15.42
   27.7504     50.15     50.88    -28.95     15.42
   27.7606     50.04     51.09    -29.27     15.41
   27.7708     50.92     51.30    -28.60     15.41
   27.7809     51.23     51.51    -28.50     15.41
   27.7911     51.45     51.73    -28.50     15.41
   27.8013     51.12     51.96    -29.06     15.41
   27.8114     50.62     52.19    -29.80     15.41
   27.8216     51.36     52.44    -29.30     15.41
   27.8318     52.20     52.68    -28.71     15.41
   27.8419     51.23     52.94    -29.93     15.40
   27.8521     53.15     53.20    -28.27     15.40
   27.8623     53.09     53.46    -28.60     15.40
   27.8724     53.03     53.73    -28.93     15.40
   27.8826     53.45     54.01    -28.78     15.40
   27.8928     53.34     54.30    -29.18     15.40
   27.9029     53.71     54.59    -29.10     15.40
   27.9131     54.01     54.88    -29.09     15.40
   27.9232     55.01     55.18    -28.39     15.39
   27.9334     55.38     55.49    -28.33     15.39
   27.9436     54.34     55.81    -29.69     15.39
   27.9537     54.91     56.12    -29.43     15.39
   27.9639     56.20     56.45    -28.47     15.39
   27.9741     56.72     56.78    -28.28     15.39
   27.9842     54.95     57.11    -30.38     15.39
   27.9944     56.51     57.45    -29.16     15.39
   28.0046     57.04     57.79    -28.98     15.38
   28.0147     56.95     58.14    -29.41     15.38
   28.0249     57.04     58.49    -29.68     15.38
   28.0351     57.86     58.85    -29.21     15.38
   28.0452     59.20     59.21    -28.23     15.38
   28.0554     58.04     59.57    -29.76     15.38
   28.0655     58.15     59.94    -30.01     15.38
   28.0757     59.08     60.31    -29.45     15.38
   28.0859     60.32     60.69    -28.59     15.37
   28.0960     59.29     61.06    -29.99     15.37
   28.1062     61.12     61.44    -28.54     15.37
   28.1164     61.20     61.82    -28.84     15.37
   28.1265     59.49     62.20    -30.93     15.37
   28.1367     61.95     62.58    -28.85     15.37
   28.1469     61.23     62.97    -29.96     15.37
   28.1570     62.41     63.35    -29.16     15.37
   28.1672     62.80     63.73    -29.15     15.36
   28.1774     63.87     64.12    -28.47     15.36
   28.1875     64.90     64.50    -27.82     15.36
   28.1977     63.21     64.88    -29.89     15.36
   28.2079     65.73     65.26    -27.75     15.36
   28.2180     64.45     65.63    -29.40     15.36
   28.2282     65.54     66.01    -28.69     15.36
   28.2383     66.88     66.38    -27.72     15.35
   28.2485     66.42     66.74    -28.55     15.35
   28.2587     66.93     67.11    -28.40     15.35
   28.2688     67.23     67.46    -28.45     15.35
   28.2790     67.86     67.82    -28.18     15.35
   28.2892     69.16     68.16    -27.22     15.35
   28.2993     68.26     68.50    -28.46     15.35
   28.3095     70.02     68.83    -27.03     15.35
   28.3197     70.11     69.16    -27.27     15.34
   28.3298     69.15     69.47    -28.54     15.34
   28.3400     69.21     69.78    -28.79     15.34
   28.3502     70.25     70.07    -28.05     15.34
   28.3603     70.48     70.36    -28.10     15.34
   28.3705     71.93     70.63    -26.93     15.34
   28.3806     70.88     70.89    -28.24     15.34
   28.3908     71.62     71.15    -27.75     15.34
   28.4010     71.02     71.38    -28.59     15.33
   28.4111     72.40     71.61    -27.43     15.33
   28.4213     72.20     71.82    -27.84     15.33
   28.4315     71.82     72.01    -28.42     15.33
   28.4416     72.16     72.19    -28.26     15.33
   28.4518     72.38     72.36    -28.20     15.33
   28.4620     72.41     72.51    -28.32     15.33
   28.4721     72.92     72.64    -27.94     15.33
   28.4823     73.27     72.76    -27.71     15.32
   28.4925     72.91     72.85    -28.17     15.32
   28.5026     74.10     72.93    -27.06     15.32
   28.5128     73.03     73.00    -28.19     15.32
   28.5230     72.40     73.04    -28.86     15.32
   28.5331     74.24     73.07    -27.05     15.32
   28.5433     73.81     73.08    -27.49     15.32
   28.5534     73.89     73.07    -27.40     15.32
   28.5636     72.95     73.04    -28.31     15.31
   28.5738     73.16     72.99    -28.06     15.31
   28.5839     71.91     72.93    -29.24     15.31
   28.5941     73.21     72.85    -27.86     15.31
   28.6043     72.77     72.74    -28.20     15.31
   28.6144     73.51     72.63    -27.34     15.31
   28.6246     72.21     72.49    -28.50     15.31
   28.6348     71.30     72.34    -29.26     15.31
   28.6449     71.38     72.17    -29.01     15.30
   28.6551     72.53     71.98    -27.68     15.30
   28.6653     71.51     71.78    -28.49     15.30
   28.6754     71.36     71.57    -28.43     15.30
   28.6856     70.52     71.33    -29.04     15.30
   28.6957     72.09     71.09    -27.22     15.30
   28.7059     70.73     70.83    -28.32     15.30
   28.7161     70.21     70.56    -28.57     15.29
   28.7262     71.30     70.27    -27.19     15.29
   28.7364     69.22     69.97    -28.98     15.29
   28.7466     70.10     69.66    -27.79     15.29
   28.7567     69.43     69.35    -28.14     15.29
   28.7669     68.77     69.02    -28.47     15.29
   28.7771     68.94     68.68    -27.96     15.29
   28.7872     69.29     68.33    -27.26     15.29
   28.7974     68.71     67.98    -27.49     15.28
   28.8076     68.28     67.61    -27.55     15.28
   28.8177     67.76     67.24    -27.71     15.28
   28.8279     67.62     66.87    -27.47     15.28
   28.8381     66.92     66.48    -27.78     15.28
   28.8482     66.65     66.10    -27.67     15.28
   28.8584     66.80     65.70    -27.13     15.28
   28.8685     65.40     65.31    -28.13     15.28
   28.8787     64.49     64.91    -28.64     15.27
   28.8889     64.90     64.50    -27.83     15.27
   28.8990     64.04     64.10    -28.28     15.27
   28.9092     63.35     63.69    -28.56     15.27
   28.9194     63.46     63.28    -28.04     15.27
   28.9295     62.63     62.88    -28.47     15.27
   28.9397     62.15     62.46    -28.54     15.27
   28.9499     62.91     62.05    -27.36     15.27
   28.9600     62.90     61.64    -26.97     15.26
   28.9702     60.75     61.23    -28.70     15.26
   28.9804     61.26     60.82    -27.78     15.26
   28.9905     60.50     60.42    -28.14     15.26
   29.0007     61.06     60.01    -27.17     15.26
   29.0108     59.63     59.61    -28.20     15.26
   29.0210     59.06     59.21    -28.37     15.26
   29.0312     59.45     58.80    -27.58     15.26
   29.0413     59.05     58.41    -27.58     15.25
   29.0515     59.57     58.02    -26.67     15.25
   29.0617     58.60     57.63    -27.25     15.25
   29.0718     58.68     57.24    -26.79     15.25
   29.0820     57.83     56.86    -27.25     15.25
   29.0922     56.76     56.48    -27.94     15.25
   29.1023     56.72     56.11    -27.61     15.25
   29.1125     55.88     55.74    -28.08     15.24
   29.1227     56.16     55.38    -27.44     15.24
   29.1328     55.51     55.02    -27.73     15.24
   29.1430     54.38     54.66    -28.51     15.24
   29.1531     56.11     54.32    -26.43     15.24
   29.1633     55.43     53.97    -26.77     15.24
   29.1735     54.54     53.63    -27.32     15.24
   29.1836     53.59     53.30    -27.94     15.24
   29.1938     54.49     52.98    -26.71     15.23
   29.2040     54.01     52.65    -26.87     15.23
   29.2141     52.82     52.34    -27.74     15.23
   29.2243     52.93     52.03    -27.32     15.23
   29.2345     51.74     51.73    -28.21     15.23
   29.2446     53.74     51.43    -25.91     15.23
   29.2548     51.36     51.14    -28.00     15.23
   29.2650     52.21     50.85    -26.86     15.23
   29.2751     51.07     50.57    -27.73     15.22
   29.2853     51.07     50.30    -27.45     15.22
   29.2955     51.49     50.03    -26.76     15.22
   29.3056     50.78     49.77    -27.21     15.22
   29.3158     49.59     49.52    -28.15     15.22
   29.3259     50.26     49.27    -27.23     15.22
   29.3361     50.73     49.02    -26.52     15.22
   29.3463     50.70     48.79    -26.31     15.22
   29.3564     49.71     48.56    -27.07     15.21
   29.3666     50.44     48.33    -26.11     15.21
   29.3768     48.98     48.11    -27.35     15.21
   29.3869     48.59     47.90    -27.53     15.21
   29.3971     48.92     47.69    -26.99     15.21
   29.4073     48.99     47.49    -26.72     15.21
   29.4174     48.16     47.29    -27.35     15.21
   29.4276     48.34     47.10    -26.98     15.21
   29.4378     47.26     46.91    -27.87     15.20
   29.4479     48.78     46.73    -26.17     15.20
   29.4581     48.29     46.56    -26.49     15.20
   29.4682     47.39     46.39    -27.22     15.20
   29.4784     47.41     46.22    -27.03     15.20
   29.4886     46.85     46.06    -27.43     15.20
   29.4987     46.49     45.91    -27.64     15.20
   29.5089     46.45     45.75    -27.53     15.20
   29.5191     46.81     45.61    -27.02     15.19
   29.5292     46.49     45.47    -27.20     15.19
   29.5394     45.92     45.33    -27.63     15.19
   29.5496     45.93     45.19    -27.49     15.19
   29.5597     45.65     45.07    -27.64     15.19
   29.5699     46.73     44.94    -26.43     15.19
   29.5801     45.79     44.82    -27.25     15.19
   29.5902     45.23     44.70    -27.69     15.18
   29.6004     45.43     44.59    -27.38     15.18
   29.6106     45.37     44.48    -27.33     15.18
   29.6207     44.78     44.37    -27.81     15.18
   29.6309     44.88     44.27    -27.61     15.18
   29.6410     45.15     44.17    -27.24     15.18
   29.6512     44.23     44.07    -28.06     15.18
   29.6614     44.95     43.98    -27.25     15.18
   29.6715     45.44     43.89    -26.67     15.17
   29.6817     43.74     43.80    -28.28     15.17
   29.6919     46.32     43.71    -25.61     15.17
   29.7020     44.59     43.63    -27.26     15.17
   29.7122     44.29     43.54    -27.48     15.17
   29.7224     43.57     43.47    -28.12     15.17
   29.7325     44.01     43.39    -27.60     15.17
   29.7427     44.10     43.31    -27.44     15.17
   29.7529     44.64     43.24    -26.82     15.16
   29.7630     44.48     43.17    -26.91     15.16
   29.7732     42.99     43.10    -28.33     15.16
   29.7833     43.11     43.03    -28.14     15.16
   29.7935     44.62     42.97    -26.57     15.16
   29.8037     42.95     42.90    -28.17     15.16
   29.8138     43.24     42.84    -27.82     15.16
   29.8240     43.12     42.77    -27.88     15.16
   29.8342     43.48     42.71    -27.45     15.15
   29.8443     42.52     42.65    -28.35     15.15
   29.8545     43.40     42.59    -27.41     15.15
   29.8647     42.76     42.53    -28.00     15.15
   29.8748     43.16     42.48    -27.54     15.15
   29.8850     43.08     42.42    -27.56     15.15
   29.8952     43.02     42.36    -27.56     15.15
   29.9053     43.20     42.31    -27.33     15.15
   29.9155     43.67     42.25    -26.80     15.14
   29.9257     43.63     42.20    -26.79     15.14
   29.9358     42.79     42.14    -27.57     15.14
   29.9460     43.13     42.09    -27.18     15.14
   29.9561     43.17     42.03    -27.09     15.14
   29.9663     43.21     41.98    -26.99     15.14
   29.9765     43.37     41.92    -26.78     15.14
   29.9866     42.09     41.87    -28.00     15.14
   29.9968     41.99     41.82    -28.05     15.13
   30.0070     41.73     41.76    -28.25     15.13
   30.0171     42.55     41.71    -27.38     15.13
   30.0273     41.86     41.65    -28.02     15.13
   30.0375     41.68     41.60    -28.14     15.13
   30.0476     41.55     41.55    -28.22     15.13
   30.0578     42.35     41.49    -27.36     15.13
   30.0680     41.91     41.44    -27.75     15.12
   30.0781     42.17     41.38    -27.43     15.12
   30.0883     41.44     41.32    -28.11     15.12
   30.0984     41.94     41.27    -27.55     15.12
   30.1086     41.07     41.21    -28.36     15.12
   30.1188     41.77     41.15    -27.61     15.12
   30.1289     41.91     41.10    -27.41     15.12
   30.1391     41.89     41.04    -27.37     15.12
   30.1493     40.93     40.98    -28.27     15.11
   30.1594     42.24     40.92    -26.90     15.11
   30.1696     39.95     40.86    -29.13     15.11
   30.1798     41.60     40.80    -27.42     15.11
   30.1899     40.04     40.74    -28.92     15.11
   30.2001     40.35     40.68    -28.55     15.11
   30.2103     41.72     40.62    -27.12     15.11
   30.2204     40.58     40.55    -28.20     15.11
   30.2306     39.78     40.49    -28.93     15.10
   30.2408     40.26     40.43    -28.39     15.10
   30.2509     40.12     40.36    -28.47     15.10
   30.2611     40.42     40.30    -28.10     15.10
   30.2712     40.65     40.23    -27.81     15.10
   30.2814     40.22     40.17    -28.17     15.10
   30.2916     39.88     40.10    -28.44     15.10
   30.3017     40.03     40.03    -28.23     15.10
   30.3119     38.93     39.97    -29.26     15.09
   30.3221     39.66     39.90    -28.46     15.09
   30.3322     39.70     39.83    -28.35     15.09
   30.3424     38.85     39.76    -29.13     15.09
   30.3526     39.65     39.69    -28.26     15.09
   30.3627     39.18     39.62    -28.66     15.09
   30.3729     39.81     39.55    -27.96     15.09
   30.3831     38.30     39.48    -29.40     15.09
   30.3932     38.15     39.41    -29.48     15.08
   30.4034     38.26     39.34    -29.30     15.08
   30.4135     38.16     39.26    -29.33     15.08
   30.4237     38.77     39.19    -28.64     15.08
   30.4339     37.90     39.12    -29.44     15.08
   30.4440     37.90     39.04    -29.37     15.08
   30.4542     38.40     38.97    -28.79     15.08
   30.4644     37.65     38.90    -29.47     15.07
   30.4745     37.97     38.82    -29.07     15.07
   30.4847     37.92     38.75    -29.05     15.07
   30.4949     38.09     38.67    -28.80     15.07
   30.5050     37.51     38.60    -29.31     15.07
   30.5152     37.90     38.52    -28.84     15.07
   30.5254     37.31     38.44    -29.36     15.07
   30.5355     36.71     38.37    -29.88     15.07
   30.5457     37.61     38.29    -28.90     15.06
   30.5559     37.56     38.21    -28.88     15.06
   30.5660     36.45     38.14    -29.91     15.06
   30.5762     35.77     38.06    -30.51     15.06
   30.5863     37.52     37.98    -28.69     15.06
   30.5965     36.23     37.91    -29.90     15.06
   30.6067     36.51     37.83    -29.54     15.06
   30.6168     36.80     37.75    -29.18     15.06
   30.6270     35.72     37.68    -30.18     15.05
   30.6372     37.27     37.60    -28.55     15.05
   30.6473     36.49     37.52    -29.25     15.05
   30.6575     36.58     37.44    -29.09     15.05
   30.6677     36.41     37.37    -29.18     15.05
   30.6778     36.39     37.29    -29.12     15.05
   30.6880     35.95     37.21    -29.48     15.05
   30.6982     35.76     37.14    -29.60     15.05
   30.7083     36.02     37.06    -29.26     15.04
   30.7185     36.66     36.98    -28.54     15.04
   30.7286     35.78     36.91    -29.35     15.04
   30.7388     35.72     36.83    -29.33     15.04
   30.7490     34.99     36.75    -29.98     15.04
   30.7591     35.26     36.68    -29.64     15.04
   30.7693     35.74     36.60    -29.08     15.04
   30.7795     35.40     36.52    -29.35     15.04
   30.7896     35.05     36.45    -29.62     15.03
   30.7998     34.65     36.37    -29.95     15.03
   30.8100     34.37     36.30    -30.15     15.03
   30.8201     35.49     36.22    -28.96     15.03
   30.8303     35.71     36.15    -28.66     15.03
   30.8405     34.84     36.07    -29.46     15.03
   30.8506     35.91     36.00    -28.31     15.03
   30.8608     35.26     35.93    -28.89     15.03
   30.8710     35.87     35.85    -28.21     15.02
   30.8811     34.77     35.78    -29.23     15.02
   30.8913     35.64     35.71    -28.29     15.02
   30.9014     34.51     35.64    -29.35     15.02
   30.9116     34.34     35.57    -29.45     15.02
   30.9218     35.05     35.49    -28.67     15.02
   30.9319     34.51     35.42    -29.14     15.02
   30.9421     33.97     35.35    -29.60     15.01
   30.9523     34.96     35.28    -28.54     15.01
   30.9624     34.02     35.21    -29.42     15.01
   30.9726     34.23     35.14    -29.14     15.01
   30.9828     35.49     35.08    -27.81     15.01
   30.9929     33.62     35.01    -29.61     15.01
   31.0031     34.86     34.94    -28.30     15.01
   31.0133     34.27     34.87    -28.83     15.01
   31.0234     33.99     34.81    -29.04     15.00
   31.0336     33.91     34.74    -29.05     15.00
   31.0437     33.90     34.68    -29.00     15.00
   31.0539     33.65     34.61    -29.18     15.00
   31.0641     34.16     34.55    -28.61     15.00
   31.0742     34.20     34.48    -28.51     15.00
   31.0844     34.04     34.42    -28.60     15.00
   31.0946     34.23     34.36    -28.35     15.00
   31.1047     33.63     34.30    -28.89     14.99
   31.1149     32.96     34.23    -29.50     14.99
   31.1251     33.90     34.17    -28.50     14.99
   31.1352     33.59     34.11    -28.75     14.99
   31.1454     33.12     34.05    -29.16     14.99
   31.1556     33.43     33.99    -28.79     14.99
   31.1657     33.43     33.94    -28.73     14.99
   31.1759     32.87     33.88    -29.23     14.99
   31.1860     34.02     33.82    -28.02     14.98
   31.1962     33.87     33.77    -28.12     14.98
   31.2064     32.63     33.71    -29.30     14.98
   31.2165     32.62     33.66    -29.26     14.98
   31.2267     33.14     33.60    -28.68     14.98
   31.2369     32.96     33.55    -28.81     14.98
   31.2470     33.04     33.49    -28.68     14.98
   31.2572     33.02     33.44    -28.64     14.98
   31.2674     32.80     33.39    -28.81     14.97
   31.2775     32.43     33.34    -29.13     14.97
   31.2877     33.65     33.29    -27.86     14.97
   31.2979     33.16     33.24    -28.30     14.97
   31.3080     32.67     33.19    -28.74     14.97
   31.3182     33.66     33.14    -27.70     14.97
   31.3284     33.10     33.10    -28.22     14.97
   31.3385     33.60     33.05    -27.67     14.97
   31.3487     34.05     33.00    -27.17     14.96
   31.3588     31.99     32.96    -29.19     14.96
   31.3690     32.57     32.91    -28.56     14.96
   31.3792     32.43     32.87    -28.66     14.96
   31.3893     32.83     32.83    -28.22     14.96
   31.3995     32.16     32.78    -28.85     14.96
   31.4097     32.73     32.74    -28.23     14.96
   31.4198     32.43     32.70    -28.49     14.95
   31.4300     33.04     32.66    -27.84     14.95
   31.4402     33.01     32.62    -27.83     14.95
   31.4503     32.57     32.58    -28.23     14.95
   31.4605     32.70     32.54    -28.07     14.95
   31.4707     32.13     32.51    -28.60     14.95
   31.4808     31.90     32.47    -28.79     14.95
   31.4910     32.65     32.43    -28.01     14.95
   31.5011     32.73     32.40    -27.89     14.94
   31.5113     32.62     32.36    -27.97     14.94
   31.5215     31.49     32.33    -29.06     14.94
   31.5316     32.93     32.30    -27.59     14.94
   31.5418     31.54     32.27    -28.95     14.94
   31.5520     33.11     32.23    -27.35     14.94
   31.5621     31.97     32.20    -28.45     14.94
   31.5723     32.45     32.17    -27.94     14.94
   31.5825     32.95     32.14    -27.41     14.93
   31.5926     32.89     32.11    -27.45     14.93
   31.6028     32.84     32.09    -27.47     14.93
   31.6130     32.07     32.06    -28.21     14.93
   31.6231     31.76     32.03    -28.49     14.93
   31.6333     32.11     32.01    -28.12     14.93
   31.6435     33.18     31.98    -27.02     14.93
   31.6536     32.08     31.96    -28.10     14.93
   31.6638     32.68     31.93    -27.47     14.92
   31.6739     32.66     31.91    -27.47     14.92
   31.6841     31.82     31.89    -28.29     14.92
   31.6943     31.86     31.87    -28.23     14.92
   31.7044     32.48     31.84    -27.59     14.92
   31.7146     32.55     31.82    -27.50     14.92
   31.7248     32.93     31.80    -27.10     14.92
   31.7349     32.23     31.79    -27.78     14.92
   31.7451     32.74     31.77    -27.25     14.91
   31.7553     31.75     31.75    -28.22     14.91
   31.7654     32.12     31.73    -27.83     14.91
   31.7756     31.63     31.72    -28.31     14.91
   31.7858     31.90     31.70    -28.02     14.91
   31.7959     32.16     31.68    -27.75     14.91
   31.8061     32.62     31.67    -27.27     14.91
   31.8162     31.77     31.66    -28.11     14.90
   31.8264     32.63     31.64    -27.23     14.90
   31.8366     32.01     31.63    -27.84     14.90
   31.8467     32.71     31.62    -27.13     14.90
   31.8569     33.07     31.61    -26.76     14.90
   31.8671     32.70     31.60    -27.12     14.90
   31.8772     31.76     31.59    -28.05     14.90
   31.8874     32.38     31.58    -27.42     14.90
   31.8976     33.42     31.57    -26.37     14.89
   31.9077     31.85     31.56    -27.93     14.89
   31.9179     32.35     31.55    -27.42     14.89
   31.9281     31.52     31.54    -28.24     14.89
   31.9382     31.20     31.54    -28.56     14.89
   31.9484     32.70     31.53    -27.05     14.89
   31.9586     32.40     31.52    -27.35     14.89
   31.9687     31.90     31.52    -27.84     14.89
   31.9789     32.18     31.51    -27.56     14.88
   31.9890     32.73     31.51    -27.00     14.88
   31.9992     32.54     31.51    -27.19     14.88
   32.0094     32.37     31.50    -27.36     14.88
   32.0195     32.09     31.50    -27.63     14.88
   32.0297     32.43     31.50    -27.29     14.88
   32.0399     31.91     31.50    -27.81     14.88
   32.0500     32.46     31.50    -27.26     14.88
   32.0602     33.02     31.50    -26.70     14.87
   32.0704     32.61     31.50    -27.11     14.87
   32.0805     33.38     31.50    -26.34     14.87
   32.0907     32.01     31.50    -27.71     14.87
   32.1009     32.14     31.50    -27.58     14.87
   32.1110     33.00     31.50    -26.72     14.87
   32.1212     32.86     31.50    -26.86     14.87
   32.1313     32.88     31.51    -26.85     14.87
   32.1415     33.01     31.51    -26.72     14.86
   32.1517     31.90     31.51    -27.83     14.86
   32.1618     32.38     31.52    -27.36     14.86
   32.1720     32.26     31.52    -27.48     14.86
   32.1822     32.43     31.52    -27.32     14.86
   32.1923     32.74     31.53    -27.01     14.86
   32.2025     32.26     31.53    -27.50     14.86
   32.2127     32.19     31.54    -27.57     14.86
   32.2228     32.71     31.55    -27.06     14.85
   32.2330     32.30     31.55    -27.47     14.85
   32.2432     32.55     31.56    -27.23     14.85
   32.2533     32.21     31.57    -27.58     14.85
   32.2635     32.59     31.57    -27.21     14.85
   32.2737     33.38     31.58    -26.42     14.85
   32.2838     33.29     31.59    -26.52     14.85
   32.2940     32.65     31.60    -27.17     14.84
   32.3041     32.21     31.61    -27.62     14.84
   32.3143     32.30     31.62    -27.54     14.84
   32.3245     32.38     31.62    -27.47     14.84
   32.3346     32.56     31.63    -27.30     14.84
   32.3448     33.51     31.64    -26.36     14.84
   32.3550     33.24     31.65    -26.64     14.84
   32.3651     32.80     31.66    -27.09     14.84
   32.3753     33.09     31.67    -26.81     14.83
   32.3855     33.68     31.68    -26.23     14.83
   32.3956     32.58     31.69    -27.34     14.83
   32.4058     32.37     31.71    -27.56     14.83
   32.4160     33.32     31.72    -26.62     14.83
   32.4261     32.86     31.73    -27.09     14.83
   32.4363     32.53     31.74    -27.43     14.83
   32.4464     32.63     31.75    -27.34     14.83
   32.4566     33.45     31.76    -26.53     14.82
   32.4668     33.18     31.77    -26.82     14.82
   32.4769     32.27     31.79    -27.74     14.82
   32.4871     32.89     31.80    -27.13     14.82
   32.4973     32.82     31.81    -27.21     14.82
   32.5074     33.26     31.82    -26.78     14.82
   32.5176     33.12     31.84    -26.94     14.82
   32.5278     32.84     31.85    -27.23     14.82
   32.5379     32.83     31.86    -27.25     14.81
   32.5481     32.77     31.87    -27.32     14.81
   32.5583     33.59     31.89    -26.52     14.81
   32.5684     33.06     31.90    -27.06     14.81
   32.5786     31.98     31.91    -28.15     14.81
   32.5888     32.01     31.92    -28.14     14.81
   32.5989     33.01     31.94    -27.15     14.81
   32.6091     31.93     31.95    -28.24     14.81
   32.6192     33.27     31.96    -26.91     14.80
   32.6294     32.74     31.97    -27.46     14.80
   32.6396     31.81     31.99    -28.40     14.80
   32.6497     32.93     32.00    -27.29     14.80
   32.6599     32.71     32.01    -27.52     14.80
   32.6701     32.10     32.02    -28.15     14.80
   32.6802     33.26     32.04    -27.00     14.80
   32.6904     32.78     32.05    -27.49     14.80
   32.7006     31.88     32.06    -28.40     14.79
   32.7107     32.65     32.07    -27.64     14.79
   32.7209     33.76     32.08    -26.55     14.79
   32.7311     32.81     32.10    -27.51     14.79
   32.7412     32.70     32.11    -27.63     14.79
   32.7514     33.27     32.12    -27.07     14.79
   32.7615     32.09     32.13    -28.26     14.79
   32.7717     33.10     32.14    -27.26     14.78
   32.7819     32.61     32.15    -27.77     14.78
   32.7920     32.24     32.16    -28.15     14.78
   32.8022     32.77     32.17    -27.63     14.78
   32.8124     32.49     32.19    -27.92     14.78
   32.8225     33.41     32.20    -27.01     14.78
   32.8327     32.41     32.21    -28.02     14.78
   32.8429     32.26     32.22    -28.18     14.78
   32.8530     33.23     32.22    -27.22     14.77
   32.8632     32.60     32.23    -27.86     14.77
   32.8734     32.95     32.24    -27.51     14.77
   32.8835     32.79     32.25    -27.68     14.77
   32.8937     32.31     32.26    -28.17     14.77
   32.9039     33.04     32.27    -27.45     14.77
   32.9140     32.62     32.28    -27.88     14.77
   32.9242     32.60     32.28    -27.91     14.77
   32.9343     33.14     32.29    -27.37     14.76
   32.9445     32.13     32.30    -28.39     14.76
   32.9547     32.29     32.30    -28.24     14.76
   32.9648     32.71     32.31    -27.82     14.76
   32.9750     31.64     32.32    -28.90     14.76
   32.9852     32.49     32.32    -28.05     14.76
   32.9953     32.73     32.33    -27.82     14.76
   33.0055     32.34     32.33    -28.21     14.76
   33.0157     32.37     32.33    -28.19     14.75
   33.0258     33.01     32.34    -27.55     14.75
   33.0360     31.94     32.34    -28.62     14.75
   33.0462     32.98     32.34    -27.59     14.75
   33.0563     33.09     32.35    -27.48     14.75
   33.0665     32.51     32.35    -28.06     14.75
   33.0766     31.92     32.35    -28.65     14.75
   33.0868     33.18     32.35    -27.39     14.75
   33.0970     32.73     32.35    -27.84     14.74
   33.1071     32.14     32.35    -28.43     14.74
   33.1173     33.17     32.35    -27.40     14.74
   33.1275     31.95     32.35    -28.62     14.74
   33.1376     32.83     32.35    -27.74     14.74
   33.1478     32.96     32.35    -27.61     14.74
   33.1580     32.48     32.34    -28.09     14.74
   33.1681     33.63     32.34    -26.93     14.73
   33.1783     33.09     32.34    -27.47     14.73
   33.1885     32.49     32.33    -28.07     14.73
   33.1986     32.98     32.33    -27.57     14.73
   33.2088     32.43     32.32    -28.12     14.73
   33.2189     33.23     32.32    -27.31     14.73
   33.2291     32.61     32.31    -27.92     14.73
   33.2393     33.23     32.30    -27.30     14.73
   33.2494     32.23     32.30    -28.29     14.72
   33.2596     33.16     32.29    -27.35     14.72
   33.2698     32.55     32.28    -27.95     14.72
   33.2799     32.69     32.27    -27.80     14.72
   33.2901     32.58     32.26    -27.90     14.72
   33.3003     33.15     32.25    -27.32     14.72
   33.3104     33.37     32.24    -27.09     14.72
   33.3206     32.55     32.23    -27.90     14.72
   33.3308     33.11     32.22    -27.33     14.71
   33.3409     32.65     32.20    -27.78     14.71
   33.3511     31.86     32.19    -28.55     14.71
   33.3613     34.15     32.18    -26.25     14.71
   33.3714     33.79     32.16    -26.59     14.71
   33.3816     33.08     32.15    -27.29     14.71
   33.3917     33.10     32.13    -27.25     14.71
   33.4019     32.91     32.11    -27.43     14.71
   33.4121     32.91     32.10    -27.41     14.70
   33.4222     32.85     32.08    -27.45     14.70
   33.4324     33.70     32.06    -26.58     14.70
   33.4426     33.04     32.04    -27.22     14.70
   33.4527     32.85     32.02    -27.39     14.70
   33.4629     32.87     32.00    -27.35     14.70
   33.4731     32.56     31.98    -27.64     14.70
   33.4832     32.52     31.96    -27.66     14.70
   33.4934     32.93     31.94    -27.23     14.69
   33.5036     32.51     31.91    -27.63     14.69
   33.5137     32.79     31.89    -27.32     14.69
   33.5239     32.92     31.87    -27.17     14.69
   33.5340     33.04     31.84    -27.02     14.69
   33.5442     32.37     31.82    -27.67     14.69
   33.5544     31.95     31.79    -28.06     14.69
   33.5645     31.69     31.76    -28.30     14.69
   33.5747     31.87     31.74    -28.09     14.68
   33.5849     31.10     31.71    -28.83     14.68
   33.5950     32.05     31.68    -27.85     14.68
   33.6052     32.26     31.65    -27.61     14.68
   33.6154     32.22     31.62    -27.62     14.68
   33.6255     31.37     31.59    -28.44     14.68
   33.6357     31.34     31.56    -28.44     14.68
   33.6459     31.28     31.53    -28.47     14.67
   33.6560     31.24     31.50    -28.48     14.67
   33.6662     31.75     31.46    -27.94     14.67
   33.6764     31.12     31.43    -28.53     14.67
   33.6865     31.65     31.40    -27.97     14.67
   33.6967     31.16     31.36    -28.42     14.67
   33.7068     30.87     31.33    -28.68     14.67
   33.7170     30.30     31.29    -29.21     14.67
   33.7272     30.16     31.26    -29.32     14.66
   33.7373     30.41     31.22    -29.03     14.66
   33.7475     31.26     31.18    -28.14     14.66
   33.7577     29.50     31.14    -29.87     14.66
   33.7678     30.57     31.11    -28.76     14.66
   33.7780     30.23     31.07    -29.06     14.66
   33.7882     30.16     31.03    -29.09     14.66
   33.7983     30.17     30.99    -29.04     14.66
   33.8085     30.05     30.95    -29.12     14.65
   33.8187     29.52     30.91    -29.61     14.65
   33.8288     30.21     30.87    -28.88     14.65
   33.8390     29.47     30.82    -29.58     14.65
   33.8491     29.55     30.78    -29.45     14.65
   33.8593     30.25     30.74    -28.71     14.65
   33.8695     29.48     30.70    -29.44     14.65
   33.8796     29.51     30.65    -29.36     14.65
   33.8898     29.37     30.61    -29.46     14.64
   33.9000     28.63     30.56    -30.15     14.64
   33.9101     29.57     30.52    -29.17     14.64
   33.9203     28.18     30.47    -30.51     14.64
   33.9305     28.80     30.43    -29.85     14.64
   33.9406     28.64     30.38    -29.96     14.64
   33.9508     29.26     30.33    -29.30     14.64
   33.9610     28.38     30.29    -30.13     14.64
   33.9711     28.61     30.24    -29.85     14.63
   33.9813     29.20     30.19    -29.21     14.63
   33.9915     28.71     30.14    -29.65     14.63
   34.0016     27.74     30.09    -30.58     14.63
   34.0118     28.46     30.05    -29.81     14.63
   34.0219     28.37     30.00    -29.85     14.63
   34.0321     28.23     29.95    -29.94     14.63
   34.0423     28.24     29.90    -29.88     14.63
   34.0524     28.09     29.85    -29.98     14.62
   34.0626     27.86     29.80    -30.16     14.62
   34.0728     27.40     29.74    -30.57     14.62
   34.0829     27.12     29.69    -30.80     14.62
   34.0931     27.77     29.64    -30.09     14.62
   34.1033     28.17     29.59    -29.64     14.62
   34.1134     27.55     29.54    -30.21     14.62
   34.1236     26.70     29.49    -31.01     14.61
   34.1338     27.10     29.43    -30.55     14.61
   34.1439     27.19     29.38    -30.41     14.61
   34.1541     27.84     29.33    -29.71     14.61
   34.1642     27.57     29.27    -29.93     14.61
   34.1744     27.06     29.22    -30.38     14.61
   34.1846     27.05     29.17    -30.34     14.61
   34.1947     27.66     29.11    -29.67     14.61
   34.2049     26.95     29.06    -30.33     14.60
   34.2151     27.38     29.00    -29.85     14.60
   34.2252     26.55     28.95    -30.62     14.60
   34.2354     27.49     28.89    -29.63     14.60
   34.2456     27.26     28.84    -29.80     14.60
   34.2557     27.04     28.78    -29.97     14.60
   34.2659     26.97     28.73    -29.98     14.60
   34.2761     27.20     28.67    -29.69     14.60
   34.2862     26.59     28.62    -30.25     14.59
   34.2964     26.38     28.56    -30.40     14.59
   34.3066     27.02     28.51    -29.71     14.59
   34.3167     26.65     28.45    -30.02     14.59
   34.3269     25.66     28.39    -30.96     14.59
   34.3370     26.58     28.34    -29.98     14.59
   34.3472     26.96     28.28    -29.54     14.59
   34.3574     27.18     28.22    -29.27     14.59
   34.3675     26.54     28.17    -29.85     14.58
   34.3777     27.01     28.11    -29.32     14.58
   34.3879     26.75     28.05    -29.53     14.58
   34.3980     26.12     28.00    -30.10     14.58
   34.4082     26.45     27.94    -29.71     14.58
   34.4184     27.18     27.88    -28.93     14.58
   34.4285     26.65     27.83    -29.40     14.58
   34.4387     25.93     27.77    -30.06     14.58
   34.4489     26.20     27.71    -29.73     14.57
   34.4590     26.23     27.66    -29.65     14.57
   34.4692     27.21     27.60    -28.61     14.57
   34.4793     25.84     27.54    -29.92     14.57
   34.4895     26.18     27.48    -29.53     14.57
   34.4997     25.85     27.43    -29.80     14.57
   34.5098     25.91     27.37    -29.68     14.57
   34.5200     25.23     27.31    -30.31     14.56
   34.5302     26.48     27.26    -29.00     14.56
   34.5403     26.49     27.20    -28.93     14.56
   34.5505     25.90     27.14    -29.46     14.56
   34.5607     26.12     27.08    -29.19     14.56
   34.5708     26.10     27.03    -29.15     14.56
   34.5810     25.35     26.97    -29.84     14.56
   34.5912     25.50     26.91    -29.64     14.56
   34.6013     25.74     26.86    -29.34     14.55
   34.6115     26.41     26.80    -28.61     14.55
   34.6217     25.72     26.74    -29.24     14.55
   34.6318     25.57     26.69    -29.34     14.55
   34.6420     26.01     26.63    -28.84     14.55
   34.6521     25.68     26.57    -29.11     14.55
   34.6623     25.52     26.52    -29.22     14.55
   34.6725     25.86     26.46    -28.82     14.55
   34.6826     25.74     26.40    -28.89     14.54
   34.6928     25.20     26.35    -29.37     14.54
   34.7030     25.09     26.29    -29.42     14.54
   34.7131     25.49     26.23    -28.97     14.54
   34.7233     25.36     26.18    -29.04     14.54
   34.7335     25.96     26.12    -28.38     14.54
   34.7436     25.66     26.07    -28.63     14.54
   34.7538     25.23     26.01    -29.00     14.54
   34.7640     25.16     25.95    -29.02     14.53
   34.7741     25.44     25.90    -28.68     14.53
   34.7843     24.73     25.84    -29.34     14.53
   34.7944     25.71     25.79    -28.30     14.53
   34.8046     25.77     25.73    -28.19     14.53
   34.8148     24.84     25.68    -29.06     14.53
   34.8249     25.89     25.62    -27.96     14.53
   34.8351     24.91     25.57    -28.88     14.53
   34.8453     24.59     25.51    -29.15     14.52
   34.8554     25.16     25.46    -28.52     14.52
   34.8656     25.77     25.41    -27.86     14.52
   34.8758     24.99     25.35    -28.58     14.52
   34.8859     25.54     25.30    -27.98     14.52
   34.8961     25.16     25.24    -28.31     14.52
   34.9063     24.39     25.19    -29.02     14.52
   34.9164     24.71     25.14    -28.65     14.52
   34.9266     25.61     25.08    -27.70     14.51
   34.9367     24.63     25.03    -28.62     14.51
   34.9469     24.99     24.98    -28.21     14.51
   34.9571     25.07     24.92    -28.08     14.51
   34.9672     25.52     24.87    -27.57     14.51
   34.9774     25.22     24.82    -27.82     14.51
   34.9876     24.96     24.77    -28.03     14.51
   34.9977     25.08     24.72    -27.86     14.50
   35.0079     24.63     24.66    -28.26     14.50
   35.0181     25.36     24.61    -27.47     14.50
   35.0282     25.21     24.56    -27.57     14.50
   35.0384     25.12     24.51    -27.61     14.50
   35.0486     25.11     24.46    -27.57     14.50
   35.0587     24.43     24.41    -28.20     14.50
   35.0689     24.43     24.36    -28.15     14.50
   35.0791     24.47     24.31    -28.06     14.49
   35.0892     24.84     24.26    -27.64     14.49
   35.0994     24.56     24.21    -27.87     14.49
   35.1095     25.23     24.16    -27.15     14.49
   35.1197     24.63     24.11    -27.70     14.49
   35.1299     25.52     24.06    -26.76     14.49
   35.1400     25.32     24.01    -26.91     14.49
   35.1502     24.62     23.96    -27.56     14.49
   35.1604     24.65     23.91    -27.48     14.48
   35.1705     25.10     23.86    -26.98     14.48
   35.1807     25.35     23.81    -26.69     14.48
   35.1909     25.17     23.77    -26.82     14.48
   35.2010     23.99     23.72    -27.95     14.48
   35.2112     25.26     23.67    -26.63     14.48
   35.2214     24.87     23.62    -26.97     14.48
   35.2315     24.45     23.58    -27.35     14.48
   35.2417     24.68     23.53    -27.07     14.47
   35.2518     24.04     23.48    -27.66     14.47
   35.2620     25.00     23.44    -26.66     14.47
   35.2722     24.28     23.39    -27.33     14.47
   35.2823     25.43     23.34    -26.14     14.47
   35.2925     24.50     23.30    -27.02     14.47
   35.3027     24.20     23.25    -27.27     14.47
   35.3128     24.54     23.21    -26.89     14.47
   35.3230     24.38     23.16    -27.00     14.46
   35.3332     25.09     23.12    -26.25     14.46
   35.3433     25.13     23.07    -26.17     14.46
   35.3535     24.38     23.03    -26.87     14.46
   35.3637     23.40     22.98    -27.81     14.46
   35.3738     24.49     22.94    -26.67     14.46
   35.3840     24.44     22.90    -26.68     14.46
   35.3942     24.72     22.85    -26.36     14.46
   35.4043     25.32     22.81    -25.71     14.45
   35.4145     25.01     22.77    -25.98     14.45
   35.4246     24.99     22.73    -25.96     14.45
   35.4348     23.66     22.68    -27.25     14.45
   35.4450     24.66     22.64    -26.20     14.45
   35.4551     23.68     22.60    -27.14     14.45
   35.4653     24.45     22.56    -26.33     14.45
   35.4755     24.99     22.52    -25.75     14.44
   35.4856     24.77     22.48    -25.93     14.44
   35.4958     24.73     22.44    -25.93     14.44
   35.5060     24.63     22.39    -25.99     14.44
   35.5161     23.93     22.35    -26.65     14.44
   35.5263     24.35     22.31    -26.19     14.44
   35.5365     25.20     22.27    -25.30     14.44
   35.5466     24.34     22.24    -26.12     14.44
   35.5568     24.79     22.20    -25.63     14.43
   35.5669     23.66     22.16    -26.72     14.43
   35.5771     24.48     22.12    -25.86     14.43
   35.5873     24.33     22.08    -25.97     14.43
   35.5974     24.29     22.04    -25.97     14.43
   35.6076     24.16     22.00    -26.07     14.43
   35.6178     23.94     21.97    -26.25     14.43
   35.6279     24.88     21.93    -25.27     14.43
   35.6381     24.38     21.89    -25.73     14.42
   35.6483     24.59     21.85    -25.49     14.42
   35.6584     24.41     21.82    -25.63     14.42
   35.6686     24.16     21.78    -25.84     14.42
   35.6788     24.68     21.74    -25.29     14.42
   35.6889     24.18     21.71    -25.75     14.42
   35.6991     25.26     21.67    -24.63     14.42
   35.7093     24.64     21.64    -25.22     14.42
   35.7194     24.77     21.60    -25.05     14.41
   35.7296     24.41     21.57    -25.38     14.41
   35.7397     24.12     21.53    -25.63     14.41
   35.7499     23.92     21.50    -25.80     14.41
   35.7601     24.04     21.46    -25.64     14.41
   35.7702     24.57     21.43    -25.08     14.41
   35.7804     24.34     21.39    -25.28     14.41
   35.7906     24.39     21.36    -25.19     14.41
   35.8007     24.28     21.33    -25.27     14.40
   35.8109     24.07     21.29    -25.45     14.40
   35.8211     24.45     21.26    -25.03     14.40
   35.8312     24.74     21.23    -24.71     14.40
   35.8414     24.13     21.20    -25.29     14.40
   35.8516     24.40     21.16    -24.99     14.40
   35.8617     23.64     21.13    -25.71     14.40
   35.8719     24.77     21.10    -24.55     14.39
   35.8820     23.88     21.07    -25.41     14.39
